"subjIndx","trial_RT","trial_blockType","trial_response","trial_limbside","trial_randSOA","trial_correct","trial_int","trial_actualIntensity","trial_crossed_legs","trial_crossed_hand",
1,0.31008,1,2,2,1.1465,1,1,0.15393,0,0,
1,0.2482,1,2,2,1.6311,1,2,0.44376,0,0,
1,0.28733,1,2,2,1.8593,1,1,0.16159,0,0,
1,0.34506,1,1,1,1.9742,1,1,0.12252,0,0,
1,0.30606,1,1,1,1.5708,1,1,0.12042,0,0,
1,0.28585,1,2,2,1.9969,1,1,0.16165,0,0,
1,0.25716,1,2,2,1.5535,1,2,0.46924,0,0,
1,0.2836,1,2,2,1.5155,1,2,0.45835,0,0,
1,0.30229,1,2,2,1.3307,1,1,0.15976,0,0,
1,0.31941,1,2,2,1.43,1,2,0.46263,0,0,
1,0.26995,1,2,2,1.4918,1,2,0.46376,0,0,
1,0.34074,1,1,1,1.071,1,2,0.37136,0,0,
1,0.37069,1,1,1,1.8877,1,2,0.35822,0,0,
1,0.39587,1,1,1,1.0646,1,2,0.35298,0,0,
1,0.33557,1,1,1,1.4362,1,2,0.36706,0,0,
1,0.45638,1,2,2,1.8266,1,1,0.16026,0,0,
1,0.30476,1,2,2,1.3945,1,2,0.45597,0,0,
1,0.32222,1,2,2,1.6135,1,1,0.14693,0,0,
1,0.31762,1,1,1,1.8186,1,2,0.3614,0,0,
1,0.37965,1,1,1,1.8862,1,1,0.11849,0,0,
1,0.47785,1,1,1,1.9311,1,1,0.11988,0,0,
1,0.30684,1,2,2,1.1908,1,2,0.47892,0,0,
1,0.32572,1,2,2,1.2586,1,1,0.15194,0,0,
1,0.30339,1,1,1,1.8979,1,2,0.35917,0,0,
1,0.26899,1,2,2,1.5934,1,2,0.45355,0,0,
1,0.26979,1,2,2,1.5038,1,1,0.1474,0,0,
1,0.2655,1,2,2,1.6128,1,1,0.14945,0,0,
1,0.28787,1,1,1,1.8194,1,1,0.11561,0,0,
1,0.23787,1,2,2,1.5319,1,2,0.45716,0,0,
1,0.41737,1,1,1,1.2021,1,1,0.11791,0,0,
1,0.25045,1,2,2,1.4539,1,2,0.45027,0,0,
1,0.24768,1,1,1,1.4279,1,1,0.1202,0,0,
1,0.25293,1,2,2,1.9661,1,1,0.14704,0,0,
1,0.30047,1,2,2,1.6201,1,1,0.15354,0,0,
1,0.23284,1,1,1,1.6954,1,2,0.37249,0,0,
1,0.2529,1,2,2,1.7202,1,2,0.44748,0,0,
1,0.29991,1,1,1,1.3469,1,2,0.37588,0,0,
1,0.29141,1,2,2,1.517,1,1,0.14628,0,0,
1,0.29158,1,1,1,1.5567,1,2,0.35932,0,0,
1,0.30761,1,2,2,1.1565,1,1,0.14509,0,0,
1,0.23904,1,1,1,1.5621,1,1,0.11741,0,0,
1,0.20945,1,2,2,1.6948,1,2,0.43517,0,0,
1,0.28945,1,2,2,1.4265,1,1,0.14823,0,0,
1,0.2599,1,2,2,1.8363,1,1,0.14744,0,0,
1,0.28106,1,2,2,1.7314,1,1,0.14958,0,0,
1,0.33683,1,1,1,1.36,1,1,0.11679,0,0,
1,0.28788,1,1,1,1.4542,1,2,0.34892,0,0,
1,0.28248,1,2,2,1.3864,1,1,0.15539,0,0,
1,0.23355,1,1,1,1.7756,1,2,0.38093,0,0,
1,0.2705,1,2,2,1.7343,1,1,0.1616,0,0,
1,0.29431,1,1,1,1.4303,1,2,0.35225,0,0,
1,0.26373,1,2,2,1.6938,1,1,0.15332,0,0,
1,0.20616,1,1,1,1.9452,1,1,0.11953,0,0,
1,0.20287,1,2,1,1.7842,0,2,0.36474,0,0,
1,0.25156,1,2,2,1.7056,1,2,0.44858,0,0,
1,0.25791,1,1,1,1.1093,1,2,0.34611,0,0,
1,0.35035,1,1,1,1.3899,1,1,0.12036,0,0,
1,0.2494,1,2,2,1.5909,1,2,0.44391,0,0,
1,0.29133,1,2,2,1.4594,1,2,0.43642,0,0,
1,1.0062,1,1,1,1.0503,1,2,0.38329,0,0,
1,0.55016,1,1,1,1.2287,1,1,0.12028,0,0,
1,0.51703,1,1,1,1.8342,1,2,0.38359,0,0,
1,0.68426,1,2,2,1.0156,1,1,0.15834,0,0,
1,0.23718,1,2,2,1.8637,1,2,0.43548,0,0,
1,0.48592,1,1,1,1.0781,1,1,0.12379,0,0,
1,0.30293,1,1,1,1.669,1,2,0.37247,0,0,
1,0.35283,1,1,1,1.5002,1,1,0.12329,0,0,
1,0.37098,1,1,1,1.218,1,1,0.12198,0,0,
1,0.34909,1,1,1,1.5716,1,2,0.35212,0,0,
1,0.65561,1,1,1,1.1222,1,1,0.12511,0,0,
1,0.29478,1,2,2,1.6712,1,2,0.44668,0,0,
1,0.31765,1,1,1,1.5996,1,2,0.35837,0,0,
1,0.47269,1,1,1,1.056,1,1,0.12683,0,0,
1,0.41289,1,1,1,1.0563,1,2,0.37897,0,0,
1,0.35528,1,2,2,1.1525,1,1,0.15191,0,0,
1,0.33243,1,1,1,1.0196,1,1,0.11873,0,0,
1,0.28563,1,1,1,1.4352,1,1,0.12277,0,0,
1,0.20501,1,2,2,1.8322,1,2,0.48318,0,0,
1,0.26456,1,2,2,1.6174,1,2,0.48312,0,0,
1,0.31386,1,1,1,1.5201,1,2,0.3676,0,0,
1,0.26749,1,2,2,1.8639,1,2,0.45209,0,0,
1,0.41931,1,1,1,1.0977,1,1,0.12628,0,0,
1,0.28365,1,1,1,1.9081,1,2,0.36134,0,0,
1,0.35862,1,2,2,1.108,1,2,0.48285,0,0,
1,0.35459,1,2,2,1.517,1,1,0.14559,0,0,
1,0.33797,1,2,2,1.1432,1,2,0.46262,0,0,
1,0.28199,1,1,1,1.5594,1,1,0.12431,0,0,
1,0.30783,1,2,2,1.0046,1,1,0.14806,0,0,
1,0.26945,1,1,1,1.7667,1,2,0.35696,0,0,
1,0.3118,1,1,1,1.8487,1,2,0.35089,0,0,
1,0.25882,1,2,2,1.9168,1,2,0.45154,0,0,
1,0.25361,1,1,1,1.987,1,1,0.11991,0,0,
1,0.35036,1,1,1,1.5051,1,1,0.12193,0,0,
1,0.34206,1,1,1,1.2714,1,1,0.11511,0,0,
1,0.30108,1,2,2,1.1008,1,2,0.4637,0,0,
1,0.25455,1,1,1,1.5078,1,2,0.35443,0,0,
1,0.2323,1,2,2,1.5856,1,1,0.14913,0,0,
1,0.26697,1,2,2,1.7629,1,2,0.44746,0,0,
1,0.31432,1,1,1,1.083,1,1,0.11651,0,0,
1,0.21285,1,2,2,1.6616,1,1,0.16192,0,0,
1,0.38208,1,1,1,1.3209,1,2,0.3662,0,1,
1,0.45648,1,2,2,1.5114,1,1,0.15824,0,1,
1,0.4333,1,2,2,1.0606,1,2,0.48795,0,1,
1,0.29168,1,2,2,1.7257,1,2,0.48609,0,1,
1,0.38085,1,2,2,1.5566,1,2,0.46276,0,1,
1,0.41117,1,2,2,1.5294,1,1,0.16206,0,1,
1,0.41186,1,2,2,1.83,1,1,0.14698,0,1,
1,0.36398,1,2,2,1.8588,1,2,0.43769,0,1,
1,0.35159,1,1,1,1.789,1,1,0.11855,0,1,
1,0.27864,1,1,2,1.3178,0,1,0.15506,0,1,
1,0.27131,1,1,1,1.4522,1,2,0.36504,0,1,
1,0.31203,1,1,1,1.7522,1,1,0.12698,0,1,
1,0.46883,1,2,2,1.1099,1,2,0.46305,0,1,
1,0.36763,1,2,2,1.1097,1,2,0.4573,0,1,
1,0.52678,1,2,2,1.2699,1,2,0.46316,0,1,
1,0.36935,1,1,1,1.5246,1,1,0.12425,0,1,
1,0.43427,1,2,2,1.9727,1,2,0.43595,0,1,
1,0.47247,1,2,2,1.7104,1,2,0.47714,0,1,
1,0.43512,1,1,1,1.3119,1,2,0.34907,0,1,
1,0.4429,1,2,2,1.2915,1,1,0.15325,0,1,
1,0.57411,1,2,2,1.8504,1,2,0.44817,0,1,
1,0.61785,1,1,1,1.9116,1,1,0.11943,0,1,
1,0.4515,1,1,1,1.6393,1,1,0.12353,0,1,
1,0.34974,1,1,1,1.2554,1,2,0.35016,0,1,
1,0.39118,1,1,1,1.0887,1,2,0.35459,0,1,
1,0.38855,1,2,2,1.8383,1,2,0.44515,0,1,
1,0.38053,1,2,2,1.5847,1,1,0.14833,0,1,
1,0.42063,1,1,1,1.9481,1,1,0.11885,0,1,
1,0.40013,1,2,2,1.061,1,2,0.48152,0,1,
1,0.31116,1,1,2,1.5846,0,1,0.15312,0,1,
1,0.38985,1,2,2,1.2851,1,2,0.45582,0,1,
1,0.49098,1,2,2,1.8277,1,2,0.44418,0,1,
1,0.34958,1,1,1,1.191,1,1,0.12797,0,1,
1,0.36754,1,2,2,1.4425,1,2,0.45601,0,1,
1,0.26847,1,1,1,1.3934,1,1,0.12615,0,1,
1,0.29706,1,2,2,1.8266,1,1,0.15568,0,1,
1,0.2581,1,1,1,1.6769,1,1,0.11954,0,1,
1,0.47018,1,1,1,1.2076,1,2,0.37988,0,1,
1,0.31032,1,1,1,1.3181,1,2,0.37587,0,1,
1,0.3126,1,1,1,1.1338,1,2,0.36228,0,1,
1,0.32586,1,1,1,1.6715,1,2,0.37713,0,1,
1,0.40054,1,2,2,1.571,1,1,0.16084,0,1,
1,0.46336,1,2,2,1.1698,1,1,0.15238,0,1,
1,0.38986,1,1,1,1.1477,1,2,0.35687,0,1,
1,0.34009,1,1,1,1.4761,1,1,0.1226,0,1,
1,0.37984,1,2,2,1.9081,1,2,0.48272,0,1,
1,0.32592,1,2,2,1.5522,1,2,0.47174,0,1,
1,0.3822,1,1,1,1.0329,1,1,0.11955,0,1,
1,0.28376,1,1,1,1.0539,1,2,0.37371,0,1,
1,0.28603,1,2,2,1.8051,1,1,0.16188,0,1,
1,0.30263,1,1,1,1.4514,1,1,0.12185,0,1,
1,0.26991,1,1,1,1.3826,1,1,0.12181,0,1,
1,0.38067,1,1,1,1.7896,1,2,0.35592,0,1,
1,0.28797,1,1,1,1.3643,1,2,0.34622,0,1,
1,0.29745,1,1,1,1.5323,1,1,0.11689,0,1,
1,0.30173,1,1,1,1.7117,1,1,0.1157,0,1,
1,0.37138,1,2,2,1.8715,1,2,0.45896,0,1,
1,0.35336,1,1,1,1.3287,1,1,0.11459,0,1,
1,0.21605,1,1,2,1.6501,0,2,0.48345,0,1,
1,0.34698,1,2,2,1.9748,1,1,0.15618,0,1,
1,0.471,1,1,1,1.076,1,1,0.11448,0,1,
1,0.29503,1,1,1,1.587,1,2,0.3446,0,1,
1,0.38653,1,1,1,1.4139,1,2,0.35173,0,1,
1,0.47828,1,2,2,1.3091,1,1,0.15284,0,1,
1,0.37758,1,2,2,1.2638,1,1,0.14718,0,1,
1,0.2575,1,1,2,1.7588,0,2,0.43554,0,1,
1,0.30224,1,2,1,1.9952,0,2,0.37337,0,1,
1,0.038626,1,1,1,1.1866,1,1,0.11923,0,1,
1,0.30502,1,1,1,1.7811,1,1,0.12523,0,1,
1,0.38395,1,2,2,1.1958,1,1,0.15251,0,1,
1,0.28794,1,1,1,1.9924,1,2,0.36109,0,1,
1,0.34362,1,2,2,1.8023,1,2,0.43758,0,1,
1,0.33678,1,1,1,1.4242,1,1,0.11512,0,1,
1,0.38538,1,1,1,1.7289,1,1,0.11567,0,1,
1,0.39962,1,2,2,1.4984,1,2,0.46591,0,1,
1,0.43066,1,2,2,1.809,1,1,0.14912,0,1,
1,0.4868,1,2,2,1.3565,1,1,0.15979,0,1,
1,0.38193,1,1,1,1.0732,1,2,0.37901,0,1,
1,0.30897,1,1,1,1.591,1,2,0.38368,0,1,
1,0.44724,1,2,2,1.9102,1,1,0.15343,0,1,
1,0.35019,1,1,1,1.1938,1,2,0.35221,0,1,
1,0.34987,1,2,2,1.4324,1,2,0.44659,0,1,
1,0.45905,1,2,2,1.7492,1,1,0.15428,0,1,
1,0.33139,1,1,1,1.0392,1,1,0.12496,0,1,
1,0.38557,1,2,2,1.9463,1,1,0.15096,0,1,
1,0.46932,1,2,2,1.7637,1,1,0.15295,0,1,
1,0.41258,1,2,2,1.5588,1,1,0.15611,0,1,
1,0.34736,1,2,2,1.1838,1,2,0.48358,0,1,
1,0.36408,1,1,1,1.4979,1,2,0.34984,0,1,
1,0.37068,1,2,2,1.5178,1,1,0.15749,0,1,
1,0.4826,1,2,2,1.9942,1,2,0.46504,0,1,
1,0.36663,1,2,2,1.8549,1,1,0.15246,0,1,
1,0.42044,1,1,1,1.9624,1,1,0.12673,0,1,
1,0.35888,1,1,1,1.6789,1,1,0.11976,0,1,
1,0.27481,1,1,1,1.4035,1,1,0.11685,0,1,
1,0.32041,1,2,2,1.935,1,1,0.15601,0,1,
1,0.60019,1,1,1,1.4795,1,2,0.36897,0,1,
1,0.31476,1,1,1,1.2318,1,2,0.35661,0,1,
1,0.3449,1,1,1,1.3963,1,2,0.37665,0,1,
1,0.27092,1,1,1,1.7051,1,2,0.38527,0,1,
1,NaN,1,0,1,1.2077,NaN,2,0.38109,1,0,
1,NaN,1,0,2,1.2193,NaN,2,0.48175,1,0,
1,NaN,1,0,2,1.3258,NaN,1,0.15256,1,0,
1,NaN,1,0,1,1.0959,NaN,1,0.12524,1,0,
1,NaN,1,0,1,1.7475,NaN,1,0.11644,1,0,
1,0.60561,1,1,2,1.7485,1,2,0.46729,1,0,
1,0.38559,1,2,1,1.5433,1,2,0.35385,1,0,
1,0.43058,1,1,2,1.3381,1,1,0.15267,1,0,
1,0.55989,1,2,2,1.8323,0,1,0.15984,1,0,
1,0.65026,1,1,2,1.5526,1,1,0.14835,1,0,
1,1.4293,1,1,2,1.9575,1,1,0.1502,1,0,
1,0.59265,1,2,1,1.8928,1,1,0.12101,1,0,
1,0.40095,1,1,2,1.3565,1,2,0.45237,1,0,
1,0.39522,1,2,1,1.5464,1,2,0.37646,1,0,
1,0.53468,1,1,2,1.3467,1,1,0.1625,1,0,
1,0.57007,1,2,1,1.6228,1,1,0.11658,1,0,
1,0.40535,1,1,2,1.7966,1,2,0.44714,1,0,
1,0.43595,1,2,1,1.7459,1,1,0.1241,1,0,
1,0.65175,1,2,2,1.1255,0,1,0.15144,1,0,
1,0.75494,1,2,1,1.8224,1,2,0.38413,1,0,
1,0.47916,1,2,1,1.0252,1,2,0.38407,1,0,
1,0.41567,1,2,1,1.4144,1,2,0.36981,1,0,
1,0.35488,1,2,1,1.7314,1,1,0.12638,1,0,
1,0.51998,1,1,2,1.7814,1,1,0.1519,1,0,
1,1.2147,1,1,2,1.3673,1,1,0.15598,1,0,
1,0.43747,1,2,1,1.7449,1,1,0.12821,1,0,
1,0.53609,1,1,2,1.8923,1,2,0.46406,1,0,
1,0.38908,1,1,2,1.2426,1,1,0.16149,1,0,
1,0.50484,1,2,1,1.1296,1,2,0.37309,1,0,
1,0.5084,1,2,1,1.2251,1,2,0.36307,1,0,
1,0.63775,1,2,1,1.35,1,2,0.36961,1,0,
1,0.74172,1,2,1,1.2871,1,1,0.12678,1,0,
1,0.56288,1,1,2,1.9275,1,2,0.44518,1,0,
1,0.86347,1,1,2,1.0513,1,1,0.15179,1,0,
1,0.72418,1,2,1,1.5927,1,1,0.12832,1,0,
1,0.61326,1,1,2,1.1629,1,1,0.15191,1,0,
1,0.58488,1,1,2,1.8384,1,2,0.4694,1,0,
1,0.79493,1,1,1,1.1676,0,1,0.12698,1,0,
1,0.73185,1,2,1,1.5022,1,2,0.38509,1,0,
1,0.51558,1,1,2,1.9993,1,2,0.46909,1,0,
1,0.76407,1,1,2,1.3554,1,1,0.14686,1,0,
1,0.62163,1,2,1,1.0471,1,1,0.11494,1,0,
1,0.55421,1,1,2,1.2137,1,2,0.4672,1,0,
1,0.36096,1,1,2,1.3978,1,2,0.46447,1,0,
1,0.45641,1,1,2,1.3337,1,1,0.16202,1,0,
1,0.38652,1,2,1,1.2296,1,2,0.37419,1,0,
1,0.3587,1,2,1,1.9361,1,1,0.12354,1,0,
1,0.42531,1,1,2,1.6832,1,2,0.46213,1,0,
1,0.38263,1,2,1,1.9621,1,2,0.35382,1,0,
1,0.40346,1,1,2,1.438,1,1,0.16202,1,0,
1,0.55207,1,1,2,1.9403,1,2,0.46303,1,0,
1,0.55233,1,2,1,1.0058,1,1,0.11486,1,0,
1,0.29838,1,1,2,1.6103,1,2,0.47143,1,0,
1,0.44265,1,2,1,1.8011,1,2,0.36457,1,0,
1,0.43847,1,1,2,1.233,1,2,0.43808,1,0,
1,0.42232,1,1,2,1.9325,1,1,0.16069,1,0,
1,0.31928,1,1,1,1.7633,0,1,0.1189,1,0,
1,0.5455,1,2,1,1.8264,1,1,0.11753,1,0,
1,0.43799,1,2,1,1.5735,1,2,0.34793,1,0,
1,0.49689,1,1,2,1.7926,1,2,0.45097,1,0,
1,0.45496,1,2,1,1.329,1,2,0.35254,1,0,
1,0.56478,1,1,2,1.2235,1,2,0.46903,1,0,
1,0.80793,1,1,2,1.3124,1,1,0.14615,1,0,
1,0.52696,1,1,2,1.5845,1,1,0.14971,1,0,
1,0.45655,1,1,2,1.8299,1,1,0.14982,1,0,
1,0.49129,1,2,1,1.2905,1,2,0.38001,1,0,
1,0.35349,1,2,1,1.4026,1,1,0.12047,1,0,
1,0.44542,1,1,2,1.8621,1,1,0.15822,1,0,
1,0.44158,1,2,1,1.6147,1,2,0.36809,1,0,
1,0.71371,1,1,2,1.9912,1,1,0.15872,1,0,
1,0.54338,1,2,1,1.2037,1,2,0.34793,1,0,
1,0.66303,1,1,2,1.8272,1,1,0.16233,1,0,
1,0.69456,1,1,2,1.6759,1,2,0.47976,1,0,
1,0.41926,1,2,1,1.2489,1,1,0.11513,1,0,
1,0.59112,1,1,2,1.4758,1,2,0.4591,1,0,
1,0.6596,1,2,2,1.3991,0,1,0.15058,1,0,
1,0.52179,1,2,1,1.5994,1,2,0.36923,1,0,
1,0.34671,1,2,1,1.8005,1,2,0.35262,1,0,
1,0.57904,1,1,2,1.1051,1,2,0.46515,1,0,
1,0.44907,1,2,1,1.8214,1,1,0.1227,1,0,
1,0.5936,1,1,2,1.8411,1,2,0.46622,1,0,
1,0.49245,1,1,2,1.3545,1,1,0.15272,1,0,
1,0.34921,1,2,1,1.4301,1,1,0.11493,1,0,
1,0.47285,1,2,1,1.5722,1,1,0.12144,1,0,
1,0.40042,1,1,2,1.7008,1,2,0.45602,1,0,
1,0.44297,1,2,1,1.7425,1,2,0.34769,1,0,
1,0.38539,1,1,2,1.7579,1,2,0.45877,1,0,
1,0.37205,1,2,1,1.3891,1,2,0.36169,1,0,
1,0.44797,1,1,2,1.4293,1,1,0.15454,1,0,
1,0.41274,1,2,1,1.9563,1,1,0.12559,1,0,
1,0.41515,1,2,1,1.573,1,2,0.37225,1,0,
1,0.29749,1,2,1,1.8497,1,1,0.12656,1,0,
1,0.31901,1,1,2,1.2763,1,2,0.43773,1,0,
1,0.82492,1,1,2,1.6223,1,2,0.44625,1,0,
1,0.38961,1,2,1,1.5884,1,1,0.12068,1,0,
1,0.39695,1,2,1,1.9635,1,2,0.38346,1,0,
1,0.41485,1,2,1,1.0859,1,1,0.12536,1,0,
1,0.43053,1,2,1,1.5005,1,1,0.12058,1,0,
1,0.51929,1,1,2,1.5216,1,2,0.45214,1,0,
1,0.4799,1,2,1,1.0902,1,2,0.34574,1,0,
1,0.6492,1,2,1,1.6983,1,1,0.126,1,1,
1,0.46505,1,2,1,1.0293,1,1,0.12551,1,1,
1,0.44669,1,1,2,1.5279,1,2,0.48361,1,1,
1,0.85769,1,1,2,1.0321,1,1,0.14735,1,1,
1,0.50996,1,1,2,1.8271,1,2,0.46114,1,1,
1,0.41066,1,2,1,1.34,1,1,0.11993,1,1,
1,1.405,1,2,2,1.8467,0,1,0.14796,1,1,
1,0.70544,1,1,2,1.2461,1,2,0.4649,1,1,
1,0.57224,1,2,1,1.5815,1,2,0.36822,1,1,
1,0.5165,1,2,1,1.9377,1,2,0.35198,1,1,
1,0.48106,1,2,1,1.0478,1,1,0.12153,1,1,
1,0.50257,1,1,2,1.054,1,1,0.16253,1,1,
1,0.48156,1,2,1,1.0206,1,1,0.12111,1,1,
1,0.55957,1,2,1,1.6815,1,2,0.37199,1,1,
1,0.47604,1,1,2,1.5986,1,2,0.45622,1,1,
1,0.45461,1,1,2,1.114,1,1,0.14562,1,1,
1,0.41908,1,2,1,1.7962,1,1,0.11839,1,1,
1,0.33876,1,2,1,1.6179,1,2,0.37659,1,1,
1,0.30911,1,2,1,1.0702,1,2,0.35737,1,1,
1,0.37253,1,1,1,1.0693,0,2,0.3467,1,1,
1,0.39092,1,2,1,1.136,1,1,0.1214,1,1,
1,0.42923,1,1,2,1.7889,1,1,0.15129,1,1,
1,0.53929,1,1,2,1.0924,1,1,0.15793,1,1,
1,0.36967,1,2,1,1.2379,1,2,0.36478,1,1,
1,0.5752,1,1,1,1.2436,0,1,0.12557,1,1,
1,0.37293,1,1,2,1.1048,1,1,0.15934,1,1,
1,0.30073,1,1,2,1.8584,1,1,0.14824,1,1,
1,0.33676,1,1,2,1.6982,1,2,0.44135,1,1,
1,0.28578,1,1,2,1.7337,1,1,0.15941,1,1,
1,0.35283,1,2,1,1.6505,1,1,0.12319,1,1,
1,0.42754,1,1,2,1.5163,1,2,0.43592,1,1,
1,0.4061,1,2,1,1.3264,1,2,0.38071,1,1,
1,0.38473,1,2,1,1.6618,1,1,0.12146,1,1,
1,0.45426,1,1,2,1.1176,1,2,0.46326,1,1,
1,0.34024,1,1,2,1.1478,1,2,0.46657,1,1,
1,0.42006,1,2,1,1.0198,1,2,0.37481,1,1,
1,0.4918,1,2,1,1.9643,1,2,0.37893,1,1,
1,0.32033,1,1,2,1.9704,1,2,0.45472,1,1,
1,0.56487,1,2,1,1.1239,1,2,0.34676,1,1,
1,0.40379,1,1,2,1.4674,1,1,0.15782,1,1,
1,0.3935,1,1,2,1.6567,1,2,0.45206,1,1,
1,0.37367,1,2,1,1.2902,1,1,0.12608,1,1,
1,0.30893,1,1,2,1.7545,1,1,0.15138,1,1,
1,0.48748,1,1,2,1.5581,1,1,0.15955,1,1,
1,0.34905,1,1,2,1.4278,1,1,0.14801,1,1,
1,0.32329,1,1,2,1.2672,1,1,0.14722,1,1,
1,0.33803,1,1,2,1.7537,1,2,0.4815,1,1,
1,0.46018,1,2,1,1.8984,1,1,0.11505,1,1,
1,0.28602,1,1,2,1.7284,1,2,0.47091,1,1,
1,0.28923,1,2,1,1.4068,1,2,0.37366,1,1,
1,0.38012,1,1,2,1.9383,1,1,0.15252,1,1,
1,0.29628,1,2,1,1.2554,1,2,0.35874,1,1,
1,0.25595,1,1,2,1.5332,1,1,0.16235,1,1,
1,0.40373,1,1,2,1.9548,1,2,0.45556,1,1,
1,0.51118,1,1,1,1.2677,0,1,0.12041,1,1,
1,0.30624,1,2,1,1.2501,1,2,0.34965,1,1,
1,0.37894,1,1,1,1.9277,0,2,0.35653,1,1,
1,0.35568,1,2,1,1.0686,1,1,0.11868,1,1,
1,0.27196,1,2,1,1.2994,1,2,0.38064,1,1,
1,0.23797,1,2,1,1.5916,1,1,0.11777,1,1,
1,NaN,1,0,2,1.2033,NaN,2,0.45095,1,1,
1,0.38428,1,2,1,1.6359,1,2,0.35994,1,1,
1,0.059941,1,1,1,1.7984,0,2,0.37256,1,1,
1,0.37132,1,1,2,1.5017,1,2,0.44236,1,1,
1,0.5181,1,2,1,1.6508,1,2,0.37963,1,1,
1,0.39696,1,1,1,1.796,0,1,0.11557,1,1,
1,0.52535,1,2,1,1.2334,1,1,0.12071,1,1,
1,0.38379,1,1,2,1.6008,1,2,0.43663,1,1,
1,0.34487,1,1,2,1.1125,1,2,0.47452,1,1,
1,1.3536,1,2,2,1.5158,0,1,0.15721,1,1,
1,0.44874,1,2,1,1.8378,1,1,0.11733,1,1,
1,0.42494,1,1,2,1.9208,1,1,0.15685,1,1,
1,0.36831,1,1,2,1.4982,1,1,0.15465,1,1,
1,0.51561,1,1,2,1.2776,1,1,0.15996,1,1,
1,0.34181,1,1,2,1.6525,1,2,0.46401,1,1,
1,0.36572,1,2,2,1.9173,0,2,0.48271,1,1,
1,0.29241,1,1,2,1.5098,1,1,0.15221,1,1,
1,0.373,1,1,2,1.9742,1,1,0.15114,1,1,
1,0.45768,1,2,1,1.1973,1,2,0.36328,1,1,
1,0.37259,1,2,1,1.1112,1,1,0.11789,1,1,
1,0.34885,1,2,1,1.2974,1,2,0.38216,1,1,
1,0.45966,1,1,2,1.3964,1,1,0.15304,1,1,
1,0.32624,1,1,2,1.4208,1,2,0.44802,1,1,
1,0.34199,1,2,1,1.3115,1,2,0.36087,1,1,
1,0.45315,1,2,1,1.6938,1,1,0.12411,1,1,
1,0.29498,1,1,2,1.0919,1,2,0.45574,1,1,
1,0.32982,1,1,2,1.4021,1,2,0.44431,1,1,
1,0.35202,1,2,1,1.2952,1,1,0.12632,1,1,
1,0.36171,1,1,2,1.3065,1,2,0.46538,1,1,
1,0.33127,1,1,1,1.1056,0,1,0.11949,1,1,
1,0.51843,1,2,1,1.5938,1,2,0.35227,1,1,
1,0.051062,1,1,2,1.2827,1,1,0.14874,1,1,
1,0.51651,1,2,1,1.1552,1,1,0.12156,1,1,
1,0.37977,1,1,2,1.0007,1,2,0.45737,1,1,
1,0.47145,1,1,2,1.2836,1,2,0.47388,1,1,
1,0.44639,1,2,1,1.5508,1,1,0.1154,1,1,
1,0.52165,1,2,1,1.8709,1,2,0.37858,1,1,
1,0.51613,1,1,1,1.0423,0,1,0.12378,1,1,
1,0.56165,1,2,2,1.9047,0,1,0.14734,1,1,
1,0.1817,1,1,1,1.131,0,2,0.37906,1,1,
1,0.44506,1,2,2,1.0954,1,1,0.14864,0,0,
1,0.29028,1,1,1,1.0356,1,2,0.35887,0,0,
1,0.30899,1,1,1,1.8862,1,1,0.11486,0,0,
1,0.3281,1,2,2,1.2469,1,1,0.15314,0,0,
1,0.29765,1,2,2,1.0089,1,2,0.45213,0,0,
1,0.30442,1,2,2,1.8149,1,1,0.16228,0,0,
1,0.29959,1,1,1,1.1405,1,1,0.12202,0,0,
1,0.35293,1,1,1,1.8799,1,2,0.37854,0,0,
1,0.37448,1,2,2,1.0954,1,1,0.15201,0,0,
1,0.30886,1,2,2,1.3526,1,2,0.45888,0,0,
1,0.32258,1,2,2,1.5934,1,1,0.15951,0,0,
1,0.3197,1,2,2,1.5852,1,2,0.48771,0,0,
1,0.38325,1,1,1,1.6677,1,2,0.36474,0,0,
1,0.35355,1,2,2,1.648,1,1,0.16134,0,0,
1,0.33567,1,2,2,1.4334,1,2,0.47375,0,0,
1,0.44073,1,1,1,1.1398,1,2,0.36657,0,0,
1,0.36796,1,1,1,1.7519,1,2,0.38391,0,0,
1,0.37734,1,1,1,1.2418,1,1,0.12586,0,0,
1,0.33435,1,1,1,1.6505,1,1,0.12784,0,0,
1,0.42606,1,2,2,1.8574,1,1,0.15624,0,0,
1,0.51452,1,1,1,1.0844,1,1,0.11958,0,0,
1,0.31619,1,2,2,1.9721,1,2,0.45965,0,0,
1,0.40199,1,2,2,1.0315,1,1,0.16109,0,0,
1,0.41798,1,1,1,1.8354,1,1,0.11466,0,0,
1,0.35308,1,1,1,1.8357,1,1,0.11655,0,0,
1,0.48156,1,1,1,1.0499,1,2,0.36255,0,0,
1,0.37678,1,1,1,1.5459,1,1,0.12185,0,0,
1,0.33916,1,2,2,1.9432,1,2,0.43811,0,0,
1,0.42737,1,2,2,1.3215,1,1,0.15645,0,0,
1,0.32996,1,2,2,1.8065,1,2,0.48204,0,0,
1,0.58463,1,1,1,1.6014,1,2,0.34775,0,0,
1,0.343,1,2,2,1.7896,1,1,0.15253,0,0,
1,0.25115,1,1,1,1.7992,1,2,0.35465,0,0,
1,0.39736,1,2,2,1.0496,1,2,0.48737,0,0,
1,0.26188,1,1,1,1.2832,1,2,0.36832,0,0,
1,0.2747,1,2,2,1.6535,1,2,0.44801,0,0,
1,0.27899,1,1,1,1.4897,1,1,0.11623,0,0,
1,0.27855,1,1,1,1.9729,1,2,0.36563,0,0,
1,0.35881,1,2,2,1.7485,1,1,0.15954,0,0,
1,0.32936,1,2,2,1.5678,1,1,0.15971,0,0,
1,0.39607,1,1,1,1.299,1,1,0.12599,0,0,
1,0.32542,1,2,2,1.2561,1,1,0.14848,0,0,
1,0.31743,1,2,2,1.8866,1,2,0.46325,0,0,
1,0.5495,1,1,1,1.4468,1,1,0.1266,0,0,
1,0.39675,1,2,2,1.816,1,1,0.14707,0,0,
1,0.33746,1,1,1,1.0983,1,2,0.37897,0,0,
1,0.33335,1,2,2,1.8596,1,2,0.4826,0,0,
1,0.37329,1,1,1,1.0276,1,2,0.35211,0,0,
1,0.48552,1,1,1,1.8992,1,2,0.34645,0,0,
1,0.29418,1,2,2,1.8999,1,2,0.45953,0,0,
1,0.46105,1,2,2,1.5241,1,2,0.47902,0,0,
1,0.33092,1,1,1,1.1202,1,2,0.36246,0,0,
1,0.32055,1,1,1,1.1778,1,1,0.12005,0,0,
1,0.80497,1,1,1,1.7061,1,1,0.12129,0,0,
1,0.2817,1,1,1,1.8314,1,2,0.34839,0,0,
1,0.34291,1,2,2,1.0348,1,2,0.44179,0,0,
1,0.47047,1,2,2,1.7578,1,1,0.16032,0,0,
1,0.27644,1,1,1,1.9571,1,2,0.36808,0,0,
1,0.27525,1,2,2,1.3429,1,1,0.14953,0,0,
1,0.30844,1,2,2,1.6382,1,1,0.16022,0,0,
1,0.2877,1,1,1,1.343,1,1,0.11523,0,0,
1,0.30033,1,1,1,1.2165,1,2,0.36198,0,0,
1,0.38096,1,1,1,1.7862,1,1,0.12439,0,0,
1,0.39055,1,1,1,1.7231,1,1,0.11902,0,0,
1,0.36465,1,2,2,1.2788,1,2,0.45568,0,0,
1,0.24671,1,1,1,1.5824,1,1,0.12162,0,0,
1,0.37999,1,1,1,1.421,1,2,0.38063,0,0,
1,0.3132,1,1,1,1.0921,1,2,0.37559,0,0,
1,0.26556,1,1,1,1.024,1,1,0.11538,0,0,
1,0.25424,1,2,2,1.4911,1,1,0.14977,0,0,
1,0.40727,1,1,1,1.2783,1,2,0.35872,0,0,
1,0.27911,1,2,2,1.3398,1,2,0.48065,0,0,
1,0.53531,1,2,2,1.2873,1,2,0.45666,0,0,
1,0.4063,1,2,2,1.1709,1,2,0.44729,0,0,
1,0.29011,1,1,1,1.3993,1,2,0.36785,0,0,
1,0.27741,1,2,2,1.6976,1,2,0.4598,0,0,
1,0.25278,1,1,1,1.2037,1,2,0.38082,0,0,
1,0.26874,1,2,2,1.6663,1,1,0.16152,0,0,
1,0.3683,1,2,2,1.4431,1,1,0.15936,0,0,
1,0.29155,1,1,1,1.4333,1,1,0.1242,0,0,
1,0.33512,1,2,2,1.1752,1,1,0.15799,0,0,
1,0.33252,1,2,2,1.1932,1,1,0.16087,0,0,
1,0.27019,1,1,1,1.6164,1,1,0.11533,0,0,
1,0.30287,1,1,1,1.269,1,1,0.11898,0,0,
1,0.31948,1,1,1,1.5597,1,1,0.11452,0,0,
1,0.2881,1,2,2,1.9448,1,1,0.15954,0,0,
1,0.26729,1,2,2,1.7145,1,2,0.46129,0,0,
1,0.25349,1,2,2,1.6792,1,2,0.45384,0,0,
1,0.27106,1,1,1,1.9594,1,1,0.11749,0,0,
1,0.32791,1,1,1,1.7753,1,1,0.12173,0,0,
1,0.29284,1,2,2,1.6077,1,2,0.44986,0,0,
1,0.2567,1,2,2,1.948,1,1,0.14618,0,0,
1,0.41384,1,1,1,1.0596,1,2,0.34677,0,0,
1,0.26812,1,1,1,1.2687,1,2,0.34611,0,0,
1,0.28737,1,2,2,1.9867,1,1,0.15204,0,0,
1,0.23745,1,1,1,1.7722,1,1,0.1161,0,0,
1,0.25737,1,2,2,1.4754,1,2,0.45788,0,0,
1,0.2532,1,1,1,1.6809,1,2,0.38084,0,0,
1,0.33247,1,2,2,1.4169,1,2,0.45319,0,0,
1,0.58683,1,2,2,1.3801,1,2,0.44117,0,0,
1,0.63936,1,1,1,1.4885,1,2,0.37128,0,1,
1,0.37228,1,2,2,1.1599,1,1,0.14592,0,1,
1,0.57585,1,2,2,1.6668,1,1,0.15905,0,1,
1,0.053379,1,1,2,1.0179,0,2,0.47046,0,1,
1,0.74152,1,2,2,1.1197,1,1,0.16173,0,1,
1,0.36669,1,2,2,1.9521,1,1,0.14657,0,1,
1,0.53781,1,1,1,1.9759,1,2,0.38125,0,1,
1,0.45548,1,2,2,1.0309,1,1,0.15381,0,1,
1,0.54085,1,2,2,1.4939,1,2,0.46703,0,1,
1,0.52039,1,1,1,1.8627,1,1,0.11871,0,1,
1,0.42571,1,2,2,1.2429,1,1,0.14634,0,1,
1,0.3946,1,1,1,1.8343,1,1,0.12624,0,1,
1,0.37393,1,1,1,1.8136,1,1,0.11638,0,1,
1,0.36958,1,1,1,1.629,1,1,0.11945,0,1,
1,0.51013,1,1,1,1.0022,1,1,0.12297,0,1,
1,0.441,1,2,2,1.3797,1,1,0.16269,0,1,
1,0.3195,1,2,2,1.9044,1,2,0.46181,0,1,
1,0.32889,1,2,2,1.6804,1,2,0.48767,0,1,
1,0.43371,1,1,1,1.3788,1,2,0.35247,0,1,
1,0.50496,1,1,1,1.632,1,2,0.35949,0,1,
1,0.358,1,1,1,1.2433,1,2,0.37207,0,1,
1,0.36359,1,1,1,1.5714,1,1,0.11532,0,1,
1,0.35203,1,1,1,1.9817,1,2,0.37426,0,1,
1,0.34456,1,1,1,1.8497,1,2,0.36042,0,1,
1,0.44444,1,2,2,1.2834,1,2,0.47771,0,1,
1,0.31604,1,2,2,1.6825,1,2,0.45455,0,1,
1,0.34492,1,2,2,1.3581,1,2,0.45139,0,1,
1,0.35639,1,1,1,1.9869,1,2,0.38467,0,1,
1,0.38123,1,1,1,1.084,1,2,0.37299,0,1,
1,0.40261,1,1,1,1.2503,1,1,0.12004,0,1,
1,0.38066,1,2,2,1.8113,1,1,0.14669,0,1,
1,0.33447,1,2,2,1.0844,1,1,0.15784,0,1,
1,0.33635,1,2,2,1.5313,1,1,0.15608,0,1,
1,0.39039,1,2,2,1.8006,1,2,0.43882,0,1,
1,0.3568,1,2,2,1.7388,1,1,0.14706,0,1,
1,0.46855,1,1,1,1.1417,1,2,0.38448,0,1,
1,0.32085,1,1,1,1.4379,1,1,0.1212,0,1,
1,0.40149,1,2,2,1.3504,1,2,0.43623,0,1,
1,0.31081,1,2,2,1.4785,1,2,0.43781,0,1,
1,0.332,1,2,2,1.5874,1,1,0.14741,0,1,
1,0.34554,1,2,2,1.1458,1,1,0.16075,0,1,
1,0.39007,1,2,2,1.9053,1,2,0.45908,0,1,
1,0.34009,1,1,1,1.6402,1,2,0.3663,0,1,
1,0.39207,1,1,1,1.1629,1,2,0.36351,0,1,
1,0.33977,1,1,1,1.5659,1,1,0.11536,0,1,
1,0.32724,1,1,1,1.9316,1,2,0.38078,0,1,
1,0.32343,1,1,1,1.7831,1,1,0.11833,0,1,
1,0.33242,1,1,1,1.6857,1,1,0.11807,0,1,
1,0.35306,1,1,1,1.4662,1,2,0.36771,0,1,
1,0.55824,1,1,1,1.2603,1,2,0.36273,0,1,
1,0.56219,1,1,1,1.5693,1,2,0.35827,0,1,
1,0.54681,1,1,1,1.2488,1,2,0.37032,0,1,
1,0.51895,1,1,1,1.3193,1,1,0.12752,0,1,
1,0.44833,1,2,2,1.9108,1,1,0.15578,0,1,
1,0.29929,1,2,2,1.8852,1,2,0.44951,0,1,
1,0.33259,1,2,2,1.7946,1,1,0.1485,0,1,
1,0.39229,1,1,1,1.9258,1,1,0.1204,0,1,
1,0.67102,1,1,1,1.1788,1,2,0.34447,0,1,
1,0.35363,1,1,1,1.5175,1,1,0.12661,0,1,
1,0.4577,1,2,2,1.627,1,2,0.46677,0,1,
1,0.33673,1,2,2,1.9132,1,2,0.44543,0,1,
1,0.34203,1,2,2,1.664,1,2,0.46195,0,1,
1,0.49905,1,1,1,1.3892,1,2,0.34553,0,1,
1,0.42572,1,1,1,1.74,1,1,0.12641,0,1,
1,0.38247,1,2,2,1.8176,1,1,0.15262,0,1,
1,0.64058,1,2,2,1.6003,1,1,0.15448,0,1,
1,0.42533,1,1,1,1.085,1,1,0.12218,0,1,
1,0.57046,1,1,1,1.9224,1,1,0.12379,0,1,
1,0.34918,1,1,1,1.0536,1,2,0.35839,0,1,
1,0.37692,1,2,2,1.527,1,2,0.43905,0,1,
1,0.36356,1,2,2,1.1189,1,1,0.15286,0,1,
1,0.33133,1,1,1,1.3801,1,2,0.34529,0,1,
1,0.37002,1,2,2,1.8128,1,2,0.47371,0,1,
1,0.40698,1,1,1,1.2441,1,1,0.11497,0,1,
1,0.47615,1,2,2,1.8844,1,1,0.16188,0,1,
1,0.53434,1,1,1,1.7126,1,2,0.37403,0,1,
1,0.43769,1,2,2,1.3781,1,1,0.16157,0,1,
1,0.45613,1,2,2,1.2489,1,2,0.4616,0,1,
1,0.51173,1,1,1,1.2529,1,2,0.35305,0,1,
1,0.46916,1,1,1,1.7672,1,1,0.11794,0,1,
1,0.47624,1,2,2,1.0499,1,2,0.47484,0,1,
1,0.40676,1,1,1,1.6853,1,1,0.12833,0,1,
1,0.34184,1,1,1,1.6203,1,1,0.11926,0,1,
1,0.34725,1,1,1,1.7467,1,1,0.12483,0,1,
1,0.41994,1,2,2,1.9773,1,1,0.14689,0,1,
1,0.33427,1,2,2,1.3839,1,1,0.15536,0,1,
1,0.56091,1,1,1,1.2602,1,2,0.36085,0,1,
1,0.35921,1,1,1,1.8775,1,2,0.37353,0,1,
1,0.37258,1,1,1,1.8061,1,1,0.11796,0,1,
1,0.31889,1,1,2,1.4611,0,1,0.14663,0,1,
1,0.44987,1,2,2,1.091,1,2,0.4583,0,1,
1,0.42682,1,1,1,1.5643,1,1,0.12322,0,1,
1,0.43967,1,2,2,1.1874,1,2,0.44177,0,1,
1,0.33063,1,1,1,1.5317,1,1,0.12059,0,1,
1,0.37453,1,2,2,1.355,1,1,0.15635,0,1,
1,0.39396,1,2,2,1.3148,1,1,0.15952,0,1,
1,0.4121,1,2,2,1.7267,1,2,0.45082,0,1,
1,0.4493,1,2,2,1.5158,1,2,0.45574,0,1,
1,0.34332,1,2,2,1.7906,1,2,0.48174,0,1,
1,0.42302,1,2,2,1.2045,1,2,0.47166,0,1,
1,0.55902,1,2,1,1.3568,1,2,0.38215,1,0,
1,0.35748,1,2,1,1.144,1,1,0.12453,1,0,
1,0.31232,1,2,1,1.8506,1,2,0.37435,1,0,
1,0.31862,1,2,1,1.3379,1,1,0.11996,1,0,
1,0.37874,1,1,2,1.2752,1,2,0.44727,1,0,
1,0.47568,1,2,1,1.006,1,1,0.12154,1,0,
1,0.46884,1,2,1,1.8019,1,2,0.35216,1,0,
1,0.44723,1,1,2,1.4974,1,2,0.47942,1,0,
1,0.47117,1,2,1,1.5378,1,1,0.12354,1,0,
1,0.41715,1,2,1,1.8709,1,2,0.37723,1,0,
1,0.33628,1,2,1,1.7228,1,2,0.37626,1,0,
1,0.34199,1,2,1,1.6681,1,1,0.12082,1,0,
1,0.49581,1,1,2,1.1788,1,1,0.1503,1,0,
1,0.43366,1,2,1,1.5505,1,1,0.12389,1,0,
1,0.49249,1,1,2,1.9599,1,2,0.48746,1,0,
1,0.39422,1,1,2,1.596,1,2,0.47544,1,0,
1,0.42838,1,2,1,1.8086,1,1,0.12594,1,0,
1,0.42585,1,1,2,1.9845,1,2,0.47196,1,0,
1,0.31744,1,2,1,1.8859,1,2,0.36775,1,0,
1,0.35731,1,1,2,1.2138,1,1,0.15817,1,0,
1,0.4791,1,1,2,1.0346,1,1,0.15357,1,0,
1,0.41191,1,2,1,1.4511,1,2,0.37936,1,0,
1,0.37022,1,1,2,1.0138,1,2,0.43853,1,0,
1,0.48514,1,2,1,1.4737,1,1,0.12797,1,0,
1,0.53199,1,2,1,1.9512,1,1,0.11577,1,0,
1,0.41835,1,1,2,1.249,1,1,0.15446,1,0,
1,0.32474,1,2,1,1.3864,1,2,0.3597,1,0,
1,0.37863,1,1,2,1.4314,1,2,0.4405,1,0,
1,0.48409,1,1,2,1.8309,1,2,0.47294,1,0,
1,0.29148,1,2,1,1.8246,1,1,0.12284,1,0,
1,0.35011,1,1,2,1.453,1,2,0.47615,1,0,
1,0.34079,1,2,1,1.3806,1,2,0.36654,1,0,
1,0.69231,1,2,1,1.9259,1,1,0.12567,1,0,
1,0.3095,1,2,1,1.7408,1,2,0.36697,1,0,
1,0.40462,1,1,2,1.7376,1,2,0.48507,1,0,
1,0.46051,1,1,2,1.9469,1,2,0.48103,1,0,
1,0.39819,1,2,1,1.5101,1,2,0.36406,1,0,
1,0.46929,1,1,2,1.7919,1,1,0.15882,1,0,
1,0.53848,1,1,2,1.4522,1,1,0.15315,1,0,
1,0.39448,1,2,1,1.8492,1,2,0.37777,1,0,
1,0.40707,1,1,2,1.3904,1,2,0.45157,1,0,
1,0.38618,1,2,2,1.7384,0,2,0.48686,1,0,
1,1.3425,1,1,2,1.9764,1,1,0.14976,1,0,
1,0.39728,1,1,2,1.5233,1,1,0.14626,1,0,
1,0.47588,1,2,1,1.4299,1,2,0.37441,1,0,
1,0.38785,1,2,1,1.2072,1,1,0.12596,1,0,
1,0.35029,1,2,1,1.3234,1,2,0.38186,1,0,
1,0.52344,1,2,1,1.1109,1,1,0.11886,1,0,
1,0.3347,1,1,2,1.3752,1,1,0.1591,1,0,
1,0.52393,1,2,1,1.3299,1,2,0.36535,1,0,
1,0.42428,1,1,2,1.3421,1,2,0.45895,1,0,
1,0.38686,1,2,1,1.8171,1,1,0.12581,1,0,
1,0.37737,1,1,2,1.5317,1,2,0.48551,1,0,
1,0.35914,1,1,2,1.5211,1,1,0.14632,1,0,
1,0.35219,1,2,1,1.7743,1,2,0.37258,1,0,
1,0.41813,1,1,2,1.1203,1,1,0.14901,1,0,
1,0.37631,1,2,1,1.6255,1,2,0.35953,1,0,
1,0.37825,1,1,2,1.3466,1,1,0.14958,1,0,
1,0.33089,1,2,1,1.3346,1,2,0.37793,1,0,
1,0.5743,1,1,2,1.5746,1,1,0.16265,1,0,
1,0.43215,1,2,1,1.8639,1,1,0.12336,1,0,
1,0.46274,1,1,2,1.1986,1,1,0.15728,1,0,
1,0.6466,1,1,2,1.6725,1,2,0.48441,1,0,
1,0.38189,1,2,1,1.9018,1,1,0.12389,1,0,
1,0.36166,1,2,1,1.1992,1,1,0.1222,1,0,
1,0.36074,1,2,1,1.2983,1,2,0.35878,1,0,
1,0.31112,1,2,1,1.4965,1,1,0.12314,1,0,
1,0.39817,1,1,2,1.8899,1,2,0.45369,1,0,
1,0.60639,1,1,2,1.5014,1,2,0.45602,1,0,
1,0.51341,1,1,2,1.277,1,1,0.15133,1,0,
1,0.44829,1,1,2,1.534,1,2,0.45922,1,0,
1,0.40718,1,1,2,1.5742,1,1,0.15369,1,0,
1,0.40871,1,2,1,1.4128,1,2,0.38134,1,0,
1,0.38113,1,2,1,1.0148,1,2,0.35165,1,0,
1,0.45712,1,1,2,1.7028,1,2,0.45241,1,0,
1,0.43133,1,1,2,1.5067,1,1,0.15495,1,0,
1,0.60946,1,2,2,1.3813,0,1,0.1534,1,0,
1,0.64748,1,2,1,1.0649,1,2,0.35392,1,0,
1,0.42152,1,1,2,1.3586,1,1,0.15504,1,0,
1,0.45118,1,2,1,1.2343,1,1,0.12664,1,0,
1,0.49433,1,2,1,1.2035,1,1,0.11527,1,0,
1,0.39001,1,1,2,1.8138,1,1,0.15259,1,0,
1,0.346,1,2,2,1.3934,0,2,0.43935,1,0,
1,0.69405,1,1,2,1.0536,1,2,0.46426,1,0,
1,0.44246,1,1,2,1.3751,1,2,0.46298,1,0,
1,0.39654,1,2,1,1.775,1,1,0.12505,1,0,
1,0.44881,1,1,2,1.1653,1,1,0.14898,1,0,
1,0.5021,1,1,2,1.9122,1,2,0.46555,1,0,
1,0.42884,1,2,1,1.3192,1,2,0.36203,1,0,
1,0.42859,1,2,1,1.3298,1,1,0.12639,1,0,
1,0.40791,1,1,2,1.2042,1,1,0.1565,1,0,
1,0.51078,1,1,2,1.7672,1,1,0.15107,1,0,
1,0.45789,1,2,1,1.07,1,2,0.3574,1,0,
1,0.50708,1,2,1,1.95,1,1,0.11786,1,0,
1,0.40235,1,1,2,1.1582,1,1,0.16185,1,0,
1,0.40093,1,1,2,1.2864,1,2,0.45031,1,0,
1,0.41166,1,2,1,1.6871,1,1,0.11657,1,0,
1,0.43818,1,1,2,1.1411,1,1,0.1512,1,0,
1,0.38847,1,2,1,1.5121,1,1,0.12467,1,0,
1,0.54733,1,2,1,1.7213,1,2,0.37247,1,0,
1,0.45826,1,1,2,1.0523,1,1,0.15669,1,1,
1,0.36801,1,2,1,1.5568,1,2,0.35543,1,1,
1,0.39297,1,1,2,1.712,1,2,0.46255,1,1,
1,0.36668,1,1,1,1.4879,0,2,0.34345,1,1,
1,0.43738,1,1,2,1.6176,1,2,0.48171,1,1,
1,0.39386,1,2,1,1.2138,1,2,0.35976,1,1,
1,0.34455,1,1,1,1.6457,0,1,0.1185,1,1,
1,0.46574,1,2,1,1.3806,1,2,0.38311,1,1,
1,0.46255,1,1,2,1.1037,1,1,0.15294,1,1,
1,0.43819,1,1,2,1.3775,1,1,0.14992,1,1,
1,0.45371,1,2,1,1.2629,1,2,0.34675,1,1,
1,0.37007,1,1,2,1.2413,1,2,0.46527,1,1,
1,0.53386,1,2,1,1.6229,1,1,0.1165,1,1,
1,0.36047,1,1,2,1.5229,1,2,0.43879,1,1,
1,0.37499,1,2,1,1.4132,1,1,0.12238,1,1,
1,0.38913,1,2,1,1.2178,1,2,0.35493,1,1,
1,0.5132,1,2,1,1.8586,1,1,0.11933,1,1,
1,0.49491,1,1,2,1.861,1,2,0.47298,1,1,
1,0.39002,1,1,2,1.2839,1,1,0.1601,1,1,
1,0.45035,1,2,1,1.6154,1,1,0.11914,1,1,
1,0.40759,1,1,2,1.7795,1,1,0.16202,1,1,
1,0.34369,1,2,1,1.9548,1,1,0.12775,1,1,
1,0.44571,1,1,1,1.9196,0,1,0.11721,1,1,
1,0.42031,1,2,1,1.3848,1,1,0.12505,1,1,
1,0.49077,1,1,2,1.1626,1,2,0.46706,1,1,
1,0.45206,1,2,1,1.7968,1,2,0.38171,1,1,
1,0.55549,1,2,1,1.1138,1,2,0.36806,1,1,
1,0.67087,1,1,2,1.1588,1,1,0.15725,1,1,
1,0.48224,1,1,2,1.3558,1,1,0.158,1,1,
1,0.3261,1,2,1,1.8478,1,2,0.35896,1,1,
1,0.44116,1,2,1,1.5828,1,1,0.11783,1,1,
1,0.53244,1,1,2,1.5862,1,2,0.43695,1,1,
1,0.34341,1,2,1,1.9258,1,1,0.12086,1,1,
1,0.34505,1,2,1,1.5751,1,2,0.36987,1,1,
1,0.46071,1,2,1,1.01,1,2,0.3546,1,1,
1,0.34452,1,1,2,1.8094,1,1,0.15395,1,1,
1,0.42556,1,2,1,1.6088,1,2,0.35324,1,1,
1,0.42804,1,2,1,1.4799,1,1,0.11845,1,1,
1,0.37733,1,2,1,1.2684,1,2,0.3701,1,1,
1,0.39609,1,1,2,1.2581,1,2,0.48213,1,1,
1,0.3576,1,1,2,1.481,1,2,0.48046,1,1,
1,0.32375,1,1,2,1.2273,1,2,0.44575,1,1,
1,0.62699,1,1,2,1.0486,1,2,0.45557,1,1,
1,0.41617,1,2,1,1.1692,1,1,0.12678,1,1,
1,0.3837,1,1,1,1.2584,0,1,0.1179,1,1,
1,0.46207,1,2,1,1.1979,1,2,0.38382,1,1,
1,0.3497,1,2,1,1.6057,1,2,0.36876,1,1,
1,0.49153,1,2,1,1.8237,1,1,0.11666,1,1,
1,0.47619,1,1,2,1.8106,1,2,0.47853,1,1,
1,0.3562,1,1,2,1.8022,1,2,0.46923,1,1,
1,0.53226,1,2,1,1.7081,1,1,0.1219,1,1,
1,1.1311,1,1,2,1.8594,1,1,0.14929,1,1,
1,0.34055,1,1,2,1.7811,1,1,0.14571,1,1,
1,0.37319,1,1,2,1.2038,1,2,0.44696,1,1,
1,0.41358,1,2,1,1.9933,1,1,0.11932,1,1,
1,0.29532,1,1,2,1.0936,1,1,0.15601,1,1,
1,0.35449,1,2,1,1.6506,1,1,0.12823,1,1,
1,0.31651,1,1,2,1.2152,1,1,0.14854,1,1,
1,0.40071,1,1,2,1.2439,1,1,0.15825,1,1,
1,0.38095,1,1,2,1.3397,1,1,0.16062,1,1,
1,0.39061,1,2,1,1.1979,1,2,0.36258,1,1,
1,0.34437,1,1,2,1.5068,1,1,0.14771,1,1,
1,0.40595,1,2,1,1.9508,1,1,0.12567,1,1,
1,0.4395,1,1,2,1.3946,1,2,0.45965,1,1,
1,0.48693,1,2,1,1.5845,1,1,0.11601,1,1,
1,0.27255,1,1,2,1.6065,1,2,0.48127,1,1,
1,1.1547,1,1,2,1.7146,1,2,0.46812,1,1,
1,0.32923,1,1,2,1.4015,1,2,0.44001,1,1,
1,0.3472,1,2,1,1.8587,1,1,0.12708,1,1,
1,0.42169,1,1,2,1.9205,1,1,0.14562,1,1,
1,0.37506,1,1,2,1.7508,1,2,0.43711,1,1,
1,0.55254,1,1,2,1.2856,1,1,0.16252,1,1,
1,0.33142,1,2,1,1.7968,1,1,0.12387,1,1,
1,0.39463,1,2,1,1.1428,1,2,0.35861,1,1,
1,0.45138,1,1,2,1.5046,1,2,0.46112,1,1,
1,0.55013,1,1,2,1.6107,1,1,0.15836,1,1,
1,0.45885,1,2,1,1.7038,1,2,0.34533,1,1,
1,0.41634,1,2,1,1.3833,1,1,0.12444,1,1,
1,0.34428,1,1,2,1.7287,1,1,0.15723,1,1,
1,0.4641,1,2,1,1.8873,1,2,0.36202,1,1,
1,0.55564,1,2,1,1.0558,1,1,0.1224,1,1,
1,0.32862,1,1,2,1.1382,1,1,0.15081,1,1,
1,1.0245,1,1,2,1.8631,1,2,0.44374,1,1,
1,0.47486,1,2,1,1.4217,1,1,0.11985,1,1,
1,0.96306,1,1,2,1.4113,1,1,0.16124,1,1,
1,0.39595,1,1,2,1.9591,1,2,0.44658,1,1,
1,0.32323,1,2,1,1.7502,1,2,0.35797,1,1,
1,0.41161,1,1,2,1.981,1,2,0.45168,1,1,
1,0.63403,1,1,2,1.2335,1,2,0.43932,1,1,
1,0.50589,1,2,1,1.0962,1,2,0.36427,1,1,
1,0.58577,1,1,2,1.3846,1,2,0.4789,1,1,
1,0.47625,1,2,2,1.5003,0,1,0.16096,1,1,
1,0.91522,1,1,2,1.5703,1,1,0.15764,1,1,
1,0.4005,1,1,2,1.9766,1,1,0.15157,1,1,
1,0.37162,1,2,1,1.4929,1,2,0.35538,1,1,
1,0.34381,1,2,1,1.4009,1,2,0.37186,1,1,
1,0.41482,1,2,1,1.995,1,2,0.38003,1,1,
1,0.66493,1,2,1,1.261,1,2,0.38196,1,1,
1,0.35557,1,2,1,1.6653,1,1,0.11554,1,1,
1,0.58967,1,1,2,1.9643,1,1,0.15332,1,1,
1,1.0932,1,1,2,1.8687,0,1,0.14779,0,0,
1,0.46075,1,1,2,1.5286,0,1,0.16098,0,0,
1,0.59728,1,2,1,1.9141,0,1,0.11549,0,0,
1,NaN,1,0,1,1.9739,NaN,1,0.11901,0,0,
1,NaN,1,0,1,1.5854,NaN,1,0.12238,0,0,
1,0.43763,1,1,1,1.119,1,1,0.1209,0,0,
1,0.31751,1,2,2,1.9265,1,2,0.47738,0,0,
1,0.29645,1,2,2,1.5936,1,2,0.46253,0,0,
1,0.27281,1,1,1,1.8836,1,1,0.1175,0,0,
1,0.30606,1,1,1,1.4245,1,1,0.12421,0,0,
1,0.27324,1,1,1,1.6073,1,2,0.34932,0,0,
1,0.29069,1,2,2,1.0708,1,2,0.46936,0,0,
1,0.28833,1,2,2,1.9248,1,2,0.46806,0,0,
1,0.32257,1,2,2,1.6421,1,1,0.14892,0,0,
1,0.33629,1,2,2,1.1045,1,1,0.14811,0,0,
1,0.27526,1,1,1,1.7002,1,1,0.11668,0,0,
1,0.26312,1,2,2,1.3958,1,2,0.44267,0,0,
1,0.34354,1,2,2,1.0849,1,2,0.44539,0,0,
1,0.26184,1,1,1,1.2145,1,1,0.12777,0,0,
1,0.26592,1,2,2,1.2488,1,1,0.1453,0,0,
1,0.24047,1,1,1,1.2267,1,1,0.1278,0,0,
1,0.30815,1,1,1,1.703,1,2,0.34441,0,0,
1,0.31565,1,1,1,1.7542,1,1,0.128,0,0,
1,0.32671,1,1,1,1.5473,1,2,0.35536,0,0,
1,0.30468,1,2,2,1.5535,1,2,0.46222,0,0,
1,0.35358,1,2,2,1.6306,1,1,0.16017,0,0,
1,0.2373,1,1,1,1.9855,1,2,0.38072,0,0,
1,0.30542,1,2,2,1.6343,1,2,0.44468,0,0,
1,0.27221,1,1,1,1.6005,1,2,0.37053,0,0,
1,0.50067,1,1,1,1.9092,1,2,0.38269,0,0,
1,0.38261,1,1,1,1.5708,1,1,0.12807,0,0,
1,0.27945,1,2,2,1.3354,1,2,0.44055,0,0,
1,0.5421,1,2,2,1.9571,1,1,0.14805,0,0,
1,0.38882,1,2,2,1.4399,1,1,0.15805,0,0,
1,0.27871,1,1,1,1.6015,1,2,0.34535,0,0,
1,0.24916,1,1,1,1.7203,1,2,0.34622,0,0,
1,0.23426,1,1,1,1.6788,1,2,0.36328,0,0,
1,0.31241,1,1,1,1.2128,1,1,0.12623,0,0,
1,0.25865,1,1,1,1.0816,1,1,0.12839,0,0,
1,0.26814,1,2,2,1.2745,1,2,0.43533,0,0,
1,0.26917,1,2,2,1.8675,1,1,0.15439,0,0,
1,0.31761,1,2,2,1.5594,1,2,0.48047,0,0,
1,0.29352,1,1,1,1.4646,1,2,0.38128,0,0,
1,0.30878,1,2,2,1.4303,1,2,0.47959,0,0,
1,0.3222,1,2,2,1.774,1,1,0.16048,0,0,
1,0.29697,1,2,2,1.6539,1,1,0.15805,0,0,
1,0.26368,1,1,1,1.6577,1,2,0.34807,0,0,
1,0.31095,1,2,2,1.161,1,2,0.46137,0,0,
1,0.28587,1,2,2,1.4324,1,1,0.14788,0,0,
1,0.29747,1,2,2,1.5051,1,1,0.1596,0,0,
1,0.29696,1,1,1,1.3753,1,2,0.38211,0,0,
1,0.26675,1,1,1,1.4804,1,2,0.35016,0,0,
1,0.28935,1,2,2,1.3424,1,2,0.48171,0,0,
1,0.22383,1,1,1,1.7771,1,2,0.35907,0,0,
1,0.28198,1,2,2,1.3839,1,1,0.15157,0,0,
1,0.28223,1,2,2,1.7116,1,2,0.44892,0,0,
1,0.28568,1,2,2,1.4809,1,2,0.48083,0,0,
1,0.24925,1,1,1,1.7292,1,1,0.12467,0,0,
1,0.26104,1,1,1,1.9376,1,1,0.12052,0,0,
1,0.25216,1,2,2,1.5173,1,2,0.47215,0,0,
1,0.29501,1,2,2,1.9031,1,1,0.16169,0,0,
1,0.33521,1,1,1,1.2182,1,1,0.11678,0,0,
1,0.26138,1,2,2,1.8732,1,1,0.14918,0,0,
1,0.29749,1,1,1,1.0827,1,2,0.36969,0,0,
1,0.26461,1,1,1,1.4654,1,2,0.3769,0,0,
1,0.30338,1,1,1,1.0219,1,1,0.12628,0,0,
1,0.33743,1,1,1,1.8083,1,1,0.11983,0,0,
1,0.30216,1,2,2,1.1792,1,1,0.14698,0,0,
1,0.31667,1,1,1,1.1654,1,1,0.11553,0,0,
1,0.34279,1,1,1,1.1816,1,2,0.35794,0,0,
1,0.2742,1,2,2,1.6914,1,2,0.47868,0,0,
1,0.30275,1,2,2,1.2138,1,2,0.44599,0,0,
1,0.29079,1,1,1,1.2981,1,2,0.37613,0,0,
1,0.26167,1,2,2,1.7683,1,1,0.15639,0,0,
1,0.26023,1,1,1,1.5012,1,2,0.34443,0,0,
1,0.34613,1,1,1,1.9095,1,1,0.1253,0,0,
1,0.30488,1,2,2,1.0579,1,2,0.48387,0,0,
1,0.27228,1,2,2,1.4368,1,2,0.46048,0,0,
1,0.26108,1,1,1,1.5723,1,1,0.126,0,0,
1,0.28765,1,1,1,1.5651,1,1,0.11621,0,0,
1,0.24855,1,2,2,1.8238,1,1,0.15829,0,0,
1,0.3563,1,1,1,1.1261,1,2,0.38201,0,0,
1,0.26941,1,2,2,1.3001,1,1,0.15963,0,0,
1,0.34108,1,2,2,1.0021,1,1,0.14943,0,0,
1,0.25131,1,2,2,1.9511,1,1,0.14864,0,0,
1,0.33186,1,2,2,1.7663,1,1,0.15403,0,0,
1,0.29498,1,2,2,1.7513,1,2,0.45548,0,0,
1,0.38731,1,1,1,1.1389,1,1,0.12096,0,0,
1,0.26279,1,1,1,1.3493,1,2,0.38502,0,0,
1,0.27197,1,2,2,1.1513,1,2,0.46647,0,0,
1,0.29316,1,1,1,1.4967,1,2,0.38286,0,0,
1,0.28009,1,2,2,1.8087,1,1,0.15346,0,0,
1,0.26052,1,1,1,1.6329,1,1,0.12038,0,0,
1,0.27071,1,1,1,1.6884,1,2,0.37534,0,0,
1,0.2675,1,1,1,1.6396,1,2,0.37411,0,0,
1,0.29877,1,1,1,1.7293,1,2,0.36136,0,0,
1,0.29454,1,1,1,1.8598,1,1,0.11516,0,0,
1,0.26233,1,2,2,1.627,1,1,0.14651,0,0,
1,0.32537,1,2,2,1.1806,1,2,0.47698,0,0,
1,0.25194,1,2,2,1.5733,1,2,0.46922,0,0,
1,1.0371,1,1,2,1.0516,0,2,0.45858,0,1,
1,0.3273,1,1,1,1.5041,1,2,0.36134,0,1,
1,0.41342,1,2,2,1.7684,1,1,0.15282,0,1,
1,0.48298,1,2,2,1.283,1,2,0.48514,0,1,
1,0.37759,1,2,2,1.2254,1,2,0.44623,0,1,
1,0.27383,1,1,1,1.3313,1,1,0.1267,0,1,
1,0.28441,1,1,1,1.4533,1,2,0.34418,0,1,
1,0.31422,1,1,1,1.7374,1,2,0.35717,0,1,
1,0.33731,1,2,2,1.5099,1,1,0.15841,0,1,
1,0.36433,1,2,2,1.3825,1,2,0.45263,0,1,
1,0.3193,1,1,1,1.9055,1,1,0.12292,0,1,
1,0.37965,1,2,1,1.9653,0,2,0.36178,0,1,
1,0.42505,1,1,1,1.6283,1,2,0.34379,0,1,
1,0.32756,1,1,1,1.132,1,2,0.36791,0,1,
1,0.4333,1,2,2,1.6183,1,1,0.15544,0,1,
1,0.32635,1,2,2,1.383,1,1,0.1563,0,1,
1,0.43174,1,2,2,1.9912,1,1,0.15087,0,1,
1,0.43539,1,2,2,1.2868,1,2,0.46054,0,1,
1,0.32754,1,2,2,1.7062,1,1,0.15724,0,1,
1,0.34324,1,1,1,1.5352,1,2,0.38035,0,1,
1,0.43385,1,2,2,1.1932,1,2,0.43788,0,1,
1,0.36856,1,1,2,1.6894,0,1,0.14669,0,1,
1,0.48213,1,2,2,1.0505,1,2,0.46891,0,1,
1,0.30543,1,2,2,1.1844,1,2,0.47512,0,1,
1,0.49577,1,1,1,1.0457,1,1,0.12825,0,1,
1,0.41196,1,2,2,1.885,1,1,0.14714,0,1,
1,0.39248,1,1,1,1.8398,1,1,0.11937,0,1,
1,0.42636,1,2,2,1.1182,1,2,0.47034,0,1,
1,0.39804,1,1,1,1.4104,1,1,0.11952,0,1,
1,0.3502,1,2,2,1.1202,1,2,0.48059,0,1,
1,0.32118,1,1,1,1.5721,1,2,0.35513,0,1,
1,0.37563,1,2,2,1.9494,1,2,0.44185,0,1,
1,0.30015,1,1,1,1.2564,1,2,0.37104,0,1,
1,0.31718,1,2,2,1.9899,1,1,0.14846,0,1,
1,0.47509,1,2,2,1.3498,1,2,0.48087,0,1,
1,0.41599,1,2,2,1.2085,1,1,0.15814,0,1,
1,0.30072,1,1,1,1.6658,1,2,0.36038,0,1,
1,0.35439,1,2,2,1.9733,1,1,0.14504,0,1,
1,0.49765,1,1,1,1.6227,1,2,0.34935,0,1,
1,0.56228,1,1,1,1.0635,1,2,0.35439,0,1,
1,0.43128,1,2,2,1.3735,1,2,0.48108,0,1,
1,0.33444,1,2,2,1.1663,1,1,0.15543,0,1,
1,0.27503,1,1,1,1.2313,1,2,0.35633,0,1,
1,0.48794,1,2,1,1.0522,0,2,0.35482,0,1,
1,0.30988,1,1,2,1.9018,0,1,0.15249,0,1,
1,0.38133,1,2,2,1.7933,1,2,0.48282,0,1,
1,0.35173,1,2,2,1.373,1,1,0.16134,0,1,
1,0.32473,1,2,2,1.8321,1,2,0.46117,0,1,
1,0.35742,1,1,1,1.7538,1,2,0.36912,0,1,
1,0.40592,1,2,2,1.6219,1,1,0.15756,0,1,
1,0.067771,1,1,1,1.3941,1,1,0.11478,0,1,
1,0.50278,1,2,2,1.3593,1,1,0.15496,0,1,
1,0.44319,1,2,2,1.0889,1,1,0.14582,0,1,
1,0.36843,1,1,1,1.3417,1,2,0.36051,0,1,
1,0.4081,1,2,2,1.5487,1,1,0.15306,0,1,
1,0.27301,1,1,1,1.4605,1,2,0.34429,0,1,
1,0.35978,1,1,1,1.6455,1,1,0.11533,0,1,
1,0.44513,1,1,1,1.5135,1,1,0.12731,0,1,
1,0.30925,1,1,1,1.8144,1,1,0.12172,0,1,
1,0.55585,1,1,1,1.0972,1,1,0.1194,0,1,
1,0.39486,1,2,2,1.4637,1,2,0.45373,0,1,
1,0.3052,1,2,2,1.5898,1,2,0.44276,0,1,
1,0.38095,1,1,1,1.1872,1,1,0.11645,0,1,
1,0.35563,1,1,1,1.6113,1,1,0.11918,0,1,
1,0.55347,1,1,1,1.0519,1,2,0.35694,0,1,
1,0.53811,1,2,2,1.5757,1,2,0.47621,0,1,
1,0.33475,1,1,1,1.8423,1,1,0.12106,0,1,
1,0.38246,1,2,2,1.4997,1,1,0.15301,0,1,
1,0.33891,1,1,1,1.439,1,2,0.34862,0,1,
1,0.39427,1,1,1,1.1491,1,2,0.38029,0,1,
1,0.46363,1,2,2,1.0283,1,2,0.47025,0,1,
1,0.31418,1,1,1,1.7567,1,1,0.12602,0,1,
1,0.28999,1,1,1,1.7961,1,2,0.37035,0,1,
1,0.40182,1,1,1,1.2936,1,2,0.38458,0,1,
1,0.38356,1,2,2,1.1152,1,2,0.48707,0,1,
1,NaN,1,0,1,1.3751,NaN,1,0.11781,0,1,
1,0.41859,1,1,1,1.8289,1,1,0.123,0,1,
1,0.3646,1,1,1,1.8418,1,1,0.12447,0,1,
1,0.43354,1,2,2,1.6652,1,2,0.46079,0,1,
1,0.3794,1,1,1,1.9601,1,1,0.12623,0,1,
1,0.30363,1,1,2,1.9431,0,1,0.14826,0,1,
1,0.45882,1,2,2,1.1127,1,2,0.44137,0,1,
1,0.29985,1,1,1,1.6483,1,2,0.3435,0,1,
1,0.38066,1,1,1,1.4808,1,2,0.34949,0,1,
1,0.43914,1,1,1,1.0665,1,1,0.12172,0,1,
1,0.44894,1,2,2,1.8978,1,2,0.46146,0,1,
1,0.4889,1,2,2,1.4972,1,1,0.15161,0,1,
1,0.41369,1,2,2,1.7713,1,2,0.45095,0,1,
1,0.4188,1,1,1,1.0604,1,1,0.11451,0,1,
1,0.49393,1,1,1,1.2625,1,1,0.12573,0,1,
1,0.35205,1,2,2,1.6511,1,1,0.1561,0,1,
1,0.39325,1,1,1,1.1336,1,1,0.12053,0,1,
1,0.34343,1,2,2,1.6385,1,2,0.44751,0,1,
1,0.36496,1,1,1,1.3849,1,2,0.37667,0,1,
1,0.42954,1,2,2,1.7657,1,1,0.15947,0,1,
1,0.31965,1,1,1,1.6529,1,1,0.12626,0,1,
1,0.63112,1,1,1,1.3815,1,1,0.12079,0,1,
1,0.46341,1,2,2,1.3,1,1,0.16219,0,1,
1,0.42483,1,1,1,1.3401,1,1,0.1261,0,1,
1,0.50071,1,2,2,1.9189,1,1,0.14635,0,1,
1,0.39433,1,2,1,1.6888,1,2,0.37512,1,0,
1,0.30973,1,2,1,1.1474,1,2,0.35204,1,0,
1,0.28064,1,2,1,1.7776,1,1,0.11491,1,0,
1,0.27564,1,2,1,1.3991,1,2,0.36109,1,0,
1,0.34762,1,1,2,1.8983,1,2,0.48467,1,0,
1,0.43746,1,2,1,1.307,1,1,0.11797,1,0,
1,0.35579,1,2,1,1.0611,1,2,0.36667,1,0,
1,0.55388,1,2,1,1.2195,1,2,0.35791,1,0,
1,0.39773,1,1,2,1.0828,1,2,0.43646,1,0,
1,0.36148,1,1,1,1.9504,0,2,0.36376,1,0,
1,0.59956,1,2,1,1.0164,1,1,0.1259,1,0,
1,0.31379,1,2,1,1.1147,1,1,0.11793,1,0,
1,0.4063,1,2,1,1.0124,1,1,0.11507,1,0,
1,0.34419,1,2,1,1.2162,1,2,0.35328,1,0,
1,0.30125,1,2,1,1.0114,1,2,0.37053,1,0,
1,0.41922,1,1,2,1.6424,1,2,0.45193,1,0,
1,0.47873,1,2,1,1.517,1,1,0.12349,1,0,
1,0.55373,1,2,1,1.2455,1,2,0.34391,1,0,
1,0.35113,1,2,1,1.1937,1,1,0.12433,1,0,
1,0.39529,1,2,1,1.0909,1,2,0.35921,1,0,
1,0.36583,1,2,1,1.3684,1,1,0.11491,1,0,
1,0.34187,1,2,1,1.0078,1,1,0.11994,1,0,
1,0.67896,1,1,2,1.6027,1,1,0.1575,1,0,
1,0.93908,1,1,2,1.4789,1,1,0.16127,1,0,
1,0.53318,1,1,2,1.3081,1,2,0.4873,1,0,
1,0.37154,1,1,2,1.7444,1,2,0.48727,1,0,
1,0.40948,1,2,1,1.8393,1,2,0.38072,1,0,
1,0.36787,1,2,1,1.2624,1,1,0.12646,1,0,
1,0.44641,1,1,2,1.5142,1,2,0.47714,1,0,
1,0.42028,1,1,2,1.4468,1,1,0.15461,1,0,
1,0.41372,1,2,2,1.3412,0,2,0.45661,1,0,
1,0.52437,1,1,2,1.8391,1,1,0.14717,1,0,
1,1.1002,1,1,2,1.9825,1,2,0.46917,1,0,
1,0.41107,1,1,2,1.6265,1,2,0.48061,1,0,
1,0.51311,1,2,1,1.1813,1,2,0.35442,1,0,
1,0.38658,1,2,1,1.123,1,2,0.37827,1,0,
1,0.40557,1,2,1,1.58,1,2,0.3462,1,0,
1,0.48723,1,1,2,1.3285,1,1,0.1515,1,0,
1,0.42642,1,2,1,1.2682,1,2,0.35416,1,0,
1,0.56469,1,1,2,1.5502,1,2,0.44284,1,0,
1,0.37816,1,2,1,1.1805,1,1,0.12309,1,0,
1,0.44629,1,2,1,1.6785,1,2,0.35613,1,0,
1,0.40052,1,2,1,1.0557,1,2,0.38348,1,0,
1,0.54774,1,1,2,1.0341,1,1,0.15361,1,0,
1,0.50044,1,2,2,1.2865,0,1,0.15791,1,0,
1,0.46121,1,2,2,1.0774,0,1,0.14525,1,0,
1,0.49583,1,1,2,1.9006,1,1,0.15551,1,0,
1,0.8263,1,1,2,1.8466,1,2,0.46497,1,0,
1,0.37652,1,1,2,1.3957,1,1,0.15916,1,0,
1,0.63711,1,2,1,1.1692,1,2,0.37029,1,0,
1,0.47725,1,1,2,1.4305,1,1,0.16047,1,0,
1,0.86782,1,1,2,1.4162,1,2,0.48274,1,0,
1,0.49312,1,1,2,1.7288,1,1,0.1476,1,0,
1,0.33986,1,1,2,1.4065,1,2,0.44486,1,0,
1,0.39853,1,1,2,1.9518,1,1,0.15886,1,0,
1,0.36234,1,1,2,1.912,1,1,0.14605,1,0,
1,0.35189,1,1,2,1.9514,1,2,0.45508,1,0,
1,0.56137,1,2,1,1.346,1,2,0.35546,1,0,
1,0.53097,1,1,1,1.2902,0,1,0.12456,1,0,
1,0.42919,1,1,2,1.8867,1,1,0.14679,1,0,
1,0.55334,1,2,1,1.21,1,1,0.1254,1,0,
1,0.34795,1,2,1,1.1309,1,2,0.37577,1,0,
1,0.43992,1,1,2,1.5205,1,2,0.46261,1,0,
1,0.4754,1,1,2,1.9055,1,2,0.44799,1,0,
1,0.48913,1,2,1,1.4025,1,1,0.1154,1,0,
1,0.37585,1,2,1,1.2158,1,2,0.36905,1,0,
1,0.98691,1,2,1,1.0787,1,1,0.11479,1,0,
1,0.54718,1,2,1,1.9331,1,2,0.34585,1,0,
1,0.3491,1,2,1,1.6029,1,1,0.11619,1,0,
1,0.48095,1,1,2,1.3775,1,2,0.45828,1,0,
1,0.42137,1,1,2,1.6649,1,2,0.47013,1,0,
1,0.44359,1,1,2,1.7922,1,2,0.48018,1,0,
1,0.54827,1,2,1,1.3335,1,1,0.12122,1,0,
1,0.40407,1,2,1,1.6927,1,2,0.34533,1,0,
1,0.42678,1,1,2,1.2038,1,2,0.45112,1,0,
1,0.38131,1,2,1,1.9587,1,1,0.12324,1,0,
1,0.55871,1,1,2,1.7118,1,1,0.15878,1,0,
1,0.44502,1,2,1,1.1669,1,2,0.35502,1,0,
1,0.43981,1,1,2,1.4428,1,1,0.15359,1,0,
1,0.43503,1,1,2,1.633,1,1,0.15937,1,0,
1,0.95411,1,1,2,1.93,1,2,0.46597,1,0,
1,0.42012,1,1,2,1.5293,1,2,0.46283,1,0,
1,0.38868,1,1,2,1.6265,1,2,0.452,1,0,
1,0.39705,1,1,2,1.6808,1,1,0.15208,1,0,
1,0.3639,1,1,2,1.9232,1,1,0.15892,1,0,
1,0.81911,1,2,1,1.1528,1,1,0.11908,1,0,
1,0.3659,1,2,1,1.4057,1,1,0.12073,1,0,
1,0.4367,1,1,2,1.3125,1,2,0.45393,1,0,
1,0.57387,1,1,2,1.6939,1,1,0.15684,1,0,
1,0.46837,1,2,1,1.8907,1,1,0.1222,1,0,
1,0.57706,1,1,2,1.4907,1,2,0.46902,1,0,
1,1.7741,1,1,2,1.8058,1,1,0.15347,1,0,
1,0.41272,1,2,1,1.3264,1,1,0.11984,1,0,
1,0.4429,1,2,1,1.5499,1,1,0.12093,1,0,
1,0.37496,1,2,1,1.3888,1,1,0.11535,1,0,
1,0.44525,1,1,2,1.8968,1,1,0.15206,1,0,
1,0.46647,1,2,1,1.6761,1,1,0.12797,1,0,
1,0.47499,1,1,2,1.8284,1,1,0.15868,1,0,
1,0.46793,1,2,1,1.1101,1,2,0.37346,1,0,
1,0.64694,1,1,2,1.2792,1,1,0.1584,1,0,
1,0.55224,1,2,1,1.9429,1,1,0.12695,1,1,
1,0.38794,1,2,1,1.0966,1,1,0.12187,1,1,
1,0.39137,1,2,1,1.8459,1,2,0.38093,1,1,
1,0.37448,1,1,2,1.9094,1,1,0.1459,1,1,
1,0.36022,1,1,2,1.0113,1,1,0.15919,1,1,
1,0.45419,1,2,1,1.5237,1,1,0.11896,1,1,
1,0.44212,1,1,2,1.6503,1,2,0.44672,1,1,
1,0.38018,1,1,2,1.3851,1,2,0.47832,1,1,
1,0.42642,1,2,1,1.6493,1,1,0.11915,1,1,
1,0.44918,1,2,1,1.7629,1,2,0.35,1,1,
1,0.40975,1,1,2,1.5757,1,2,0.43652,1,1,
1,0.35666,1,2,1,1.6319,1,1,0.12777,1,1,
1,0.40939,1,2,1,1.2782,1,1,0.12379,1,1,
1,0.40019,1,1,2,1.8398,1,1,0.16014,1,1,
1,0.43355,1,1,2,1.4268,1,2,0.48479,1,1,
1,0.40312,1,1,2,1.6316,1,1,0.15685,1,1,
1,0.39955,1,2,1,1.8335,1,1,0.12722,1,1,
1,0.38255,1,1,2,1.2702,1,2,0.44816,1,1,
1,0.34789,1,2,1,1.4008,1,1,0.12675,1,1,
1,0.42111,1,1,2,1.5543,1,1,0.16124,1,1,
1,0.40168,1,1,2,1.4439,1,1,0.15013,1,1,
1,0.3617,1,1,2,1.0904,1,2,0.4388,1,1,
1,0.34817,1,1,2,1.7444,1,1,0.15843,1,1,
1,0.5499,1,1,2,1.0326,1,2,0.43939,1,1,
1,0.44457,1,1,2,1.4297,1,2,0.47319,1,1,
1,0.59428,1,2,1,1.0373,1,2,0.36156,1,1,
1,0.45872,1,1,2,1.9758,1,2,0.46899,1,1,
1,0.49842,1,1,2,1.5223,1,1,0.14789,1,1,
1,0.51519,1,2,1,1.9096,1,2,0.36506,1,1,
1,0.35458,1,1,2,1.3832,1,2,0.46805,1,1,
1,0.40157,1,1,2,1.8845,1,1,0.14527,1,1,
1,0.3016,1,1,2,1.255,1,1,0.15311,1,1,
1,0.37558,1,1,2,1.909,1,2,0.48185,1,1,
1,0.36508,1,1,2,1.8946,1,1,0.14695,1,1,
1,0.47834,1,2,1,1.3985,1,1,0.12045,1,1,
1,0.38801,1,2,1,1.625,1,1,0.12349,1,1,
1,0.33132,1,2,1,1.5676,1,1,0.11842,1,1,
1,0.28649,1,2,1,1.8945,1,2,0.3831,1,1,
1,0.60629,1,1,2,1.2142,1,1,0.15711,1,1,
1,0.44142,1,2,1,1.0039,1,2,0.35167,1,1,
1,0.36024,1,2,1,1.8806,1,1,0.12201,1,1,
1,0.43719,1,2,1,1.2351,1,1,0.12666,1,1,
1,0.36468,1,2,1,1.2449,1,1,0.12206,1,1,
1,0.4437,1,1,2,1.6409,1,2,0.47448,1,1,
1,0.39035,1,1,2,1.3045,1,2,0.48233,1,1,
1,0.375,1,2,1,1.8256,1,1,0.12611,1,1,
1,0.47919,1,2,1,1.8837,1,2,0.34861,1,1,
1,0.44506,1,2,1,1.9454,1,1,0.11698,1,1,
1,0.40686,1,2,1,1.3908,1,2,0.34952,1,1,
1,0.40853,1,2,1,1.8013,1,1,0.11485,1,1,
1,0.68448,1,1,2,1.1571,1,1,0.14519,1,1,
1,0.46366,1,2,1,1.6252,1,2,0.3678,1,1,
1,0.39858,1,1,2,1.699,1,2,0.46671,1,1,
1,0.57,1,1,2,1.0859,1,2,0.48367,1,1,
1,0.33578,1,1,2,1.5312,1,2,0.47345,1,1,
1,0.50651,1,2,1,1.8886,1,2,0.35551,1,1,
1,0.40267,1,2,1,1.2637,1,1,0.12118,1,1,
1,0.32124,1,2,1,1.2348,1,2,0.35375,1,1,
1,0.56642,1,1,2,1.8397,1,2,0.47341,1,1,
1,0.33768,1,1,1,1.4955,0,2,0.34804,1,1,
1,0.46651,1,1,2,1.1524,1,1,0.15804,1,1,
1,0.75775,1,1,2,1.2308,1,2,0.47763,1,1,
1,0.38032,1,2,1,1.658,1,2,0.37416,1,1,
1,0.49405,1,1,2,1.5629,1,1,0.15078,1,1,
1,0.33318,1,2,1,1.2918,1,2,0.36729,1,1,
1,0.31152,1,2,1,1.6223,1,2,0.36244,1,1,
1,0.42831,1,1,2,1.7159,1,1,0.1465,1,1,
1,0.6222,1,1,2,1.2807,1,1,0.15956,1,1,
1,0.34937,1,1,2,1.4123,1,1,0.15695,1,1,
1,0.52782,1,1,2,1.3622,1,1,0.14957,1,1,
1,0.61582,1,2,1,1.7814,1,2,0.38394,1,1,
1,1.336,1,1,2,1.1355,1,2,0.44441,1,1,
1,0.40777,1,2,1,1.9021,1,1,0.11849,1,1,
1,0.36279,1,2,1,1.2896,1,1,0.12001,1,1,
1,0.39866,1,2,1,1.4996,1,1,0.11762,1,1,
1,0.60122,1,2,1,1.7836,1,2,0.35119,1,1,
1,0.34325,1,1,2,1.6771,1,1,0.15731,1,1,
1,0.54052,1,2,1,1.1498,1,2,0.35061,1,1,
1,0.3806,1,2,1,1.6966,1,2,0.36468,1,1,
1,0.47567,1,2,1,1.129,1,1,0.11843,1,1,
1,0.33424,1,2,1,1.9459,1,2,0.36218,1,1,
1,0.33037,1,2,1,1.8864,1,1,0.12733,1,1,
1,0.35105,1,2,1,1.515,1,1,0.11734,1,1,
1,0.34562,1,2,1,1.6794,1,2,0.34343,1,1,
1,0.5298,1,1,2,1.9768,1,1,0.16099,1,1,
1,0.67743,1,2,1,1.1255,1,1,0.12379,1,1,
1,0.45492,1,1,2,1.7522,1,1,0.1539,1,1,
1,0.5781,1,1,2,1.8271,1,2,0.46206,1,1,
1,0.49498,1,1,2,1.7814,1,1,0.14677,1,1,
1,0.5881,1,2,1,1.1909,1,2,0.38515,1,1,
1,0.57504,1,1,2,1.4286,1,1,0.15116,1,1,
1,0.60714,1,1,2,1.0145,1,2,0.46759,1,1,
1,0.34867,1,2,1,1.3253,1,2,0.3593,1,1,
1,0.46551,1,1,2,1.1347,1,2,0.43549,1,1,
1,0.36614,1,1,2,1.4505,1,2,0.4633,1,1,
1,0.48401,1,2,1,1.5723,1,2,0.36412,1,1,
1,0.4802,1,1,2,1.792,1,2,0.44765,1,1,
1,0.39327,1,2,1,1.4197,1,2,0.34519,1,1,
1,0.49547,1,1,2,1.5325,1,1,0.1598,1,1,
1,0.57314,1,1,2,1.9257,1,2,0.43753,1,1,
1,0.38503,2,1,1,1.9151,1,1,0.12129,0,0,
1,0.29805,2,1,1,1.901,1,2,0.37517,0,0,
1,0.34772,2,2,2,1.2142,1,1,0.15166,0,0,
1,0.30104,2,2,2,1.5471,1,1,0.15281,0,0,
1,0.28323,2,1,1,1.7847,1,2,0.34869,0,0,
1,0.31594,2,1,1,1.1944,1,2,0.37473,0,0,
1,0.3012,2,1,1,1.7469,1,2,0.36648,0,0,
1,0.3375,2,2,2,1.4756,1,1,0.15628,0,0,
1,0.302,2,2,2,1.5833,1,2,0.47698,0,0,
1,0.331,2,2,2,1.2605,1,1,0.14876,0,0,
1,0.3099,2,1,1,1.0848,1,2,0.37904,0,0,
1,0.29109,2,1,1,1.2981,1,1,0.12703,0,0,
1,0.3738,2,1,1,1.9171,1,2,0.35513,0,0,
1,0.31821,2,2,2,1.4705,1,2,0.47303,0,0,
1,0.33913,2,1,1,1.2695,1,1,0.11903,0,0,
1,0.33181,2,1,1,1.763,1,1,0.11811,0,0,
1,0.31964,2,2,2,1.7722,1,1,0.14791,0,0,
1,0.36348,2,1,1,1.0213,1,2,0.37067,0,0,
1,0.27961,2,2,2,1.88,1,2,0.4628,0,0,
1,0.36932,2,2,2,1.7982,1,1,0.15956,0,0,
1,0.32153,2,1,1,1.3242,1,1,0.11804,0,0,
1,0.30646,2,1,1,1.669,1,2,0.35043,0,0,
1,0.31987,2,2,2,1.2963,1,1,0.15242,0,0,
1,0.31968,2,2,2,1.93,1,1,0.1532,0,0,
1,0.46013,2,2,2,1.282,1,1,0.15876,0,0,
1,0.43087,2,1,1,1.1689,1,2,0.3486,0,0,
1,0.32472,2,2,2,1.7452,1,1,0.1459,0,0,
1,0.33843,2,1,2,1.4771,0,2,0.46771,0,0,
1,0.35347,2,1,1,1.6534,1,2,0.34454,0,0,
1,0.41395,2,1,1,1.9666,1,1,0.11627,0,0,
1,0.31224,2,1,1,1.313,1,2,0.37198,0,0,
1,0.4089,2,2,2,1.0764,1,1,0.15391,0,0,
1,0.29758,2,1,1,1.7914,1,1,0.12184,0,0,
1,0.30847,2,2,2,1.3654,1,2,0.47755,0,0,
1,0.30914,2,1,1,1.5851,1,1,0.12542,0,0,
1,0.28177,2,2,2,1.1833,1,2,0.46099,0,0,
1,0.30297,2,1,1,1.0769,1,2,0.35451,0,0,
1,0.2952,2,2,2,1.1537,1,1,0.14705,0,0,
1,0.30882,2,2,2,1.8269,1,1,0.16062,0,0,
1,0.29191,2,1,1,1.301,1,1,0.12799,0,0,
1,0.31653,2,2,2,1.3839,1,1,0.16166,0,0,
1,0.27339,2,1,1,1.6507,1,2,0.36957,0,0,
1,0.28641,2,1,1,1.8174,1,2,0.34699,0,0,
1,0.26951,2,1,1,1.7663,1,2,0.34636,0,0,
1,0.34467,2,1,1,1.3742,1,2,0.35068,0,0,
1,0.30324,2,1,1,1.1899,1,1,0.11488,0,0,
1,0.29321,2,2,2,1.6465,1,2,0.47298,0,0,
1,0.39073,2,2,2,1.0036,1,1,0.14746,0,0,
1,0.33353,2,1,1,1.2829,1,2,0.36948,0,0,
1,0.27313,2,1,1,1.6386,1,1,0.12536,0,0,
1,0.27742,2,2,2,1.5921,1,2,0.46442,0,0,
1,0.31506,2,2,2,1.3253,1,2,0.45443,0,0,
1,0.29093,2,2,2,1.989,1,1,0.15943,0,0,
1,0.33188,2,2,2,1.1232,1,2,0.45065,0,0,
1,0.30862,2,2,2,1.7359,1,2,0.45141,0,0,
1,0.32661,2,2,2,1.1566,1,2,0.47626,0,0,
1,0.32749,2,1,1,1.4346,1,1,0.1213,0,0,
1,0.31414,2,2,2,1.8322,1,2,0.44838,0,0,
1,0.31874,2,2,2,1.3599,1,2,0.47339,0,0,
1,0.36412,2,2,2,1.0762,1,2,0.44335,0,0,
1,0.79884,2,1,1,1.5569,1,1,0.12727,0,0,
1,0.44212,2,1,1,1.2739,1,1,0.11743,0,0,
1,0.31519,2,2,2,1.1321,1,2,0.43932,0,0,
1,0.34519,2,2,2,1.6997,1,1,0.14627,0,0,
1,0.29709,2,2,2,1.4859,1,2,0.47542,0,0,
1,0.35053,2,1,1,1.1827,1,2,0.37729,0,0,
1,0.31086,2,1,1,1.1012,1,2,0.37395,0,0,
1,0.26311,2,2,2,1.2016,1,2,0.4748,0,0,
1,0.3095,2,2,2,1.1347,1,2,0.48602,0,0,
1,0.26495,2,1,1,1.3238,1,1,0.12078,0,0,
1,0.26701,2,1,1,1.9505,1,2,0.37596,0,0,
1,0.35094,2,2,2,1.5321,1,1,0.15227,0,0,
1,0.91535,2,2,2,1.2477,1,1,0.16168,0,0,
1,0.30914,2,2,2,1.4373,1,2,0.43518,0,0,
1,0.27736,2,1,1,1.6691,1,1,0.12815,0,0,
1,0.65215,2,2,2,1.5477,1,2,0.46463,0,0,
1,NaN,2,0,1,1.6091,NaN,2,0.35737,0,0,
1,0.076246,2,1,2,1.8631,0,2,0.46395,0,0,
1,0.33191,2,1,1,1.3807,1,1,0.11848,0,0,
1,0.31863,2,2,2,1.749,1,1,0.14772,0,0,
1,0.26963,2,1,1,1.1567,1,1,0.12358,0,0,
1,0.42373,2,1,1,1.0581,1,1,0.12385,0,0,
1,0.37203,2,1,1,1.3397,1,1,0.1254,0,0,
1,0.276,2,2,2,1.8172,1,1,0.15098,0,0,
1,0.26651,2,1,1,1.3775,1,1,0.11781,0,0,
1,0.29392,2,1,1,1.9726,1,2,0.35731,0,0,
1,0.3441,2,1,1,1.6053,1,1,0.11888,0,0,
1,0.29189,2,2,2,1.3382,1,1,0.16138,0,0,
1,0.4044,2,2,2,1.928,1,1,0.15823,0,0,
1,0.25104,2,1,1,1.8984,1,2,0.35498,0,0,
1,0.26345,2,1,1,1.8507,1,1,0.12274,0,0,
1,0.26005,2,2,2,1.2568,1,2,0.47523,0,0,
1,0.28653,2,2,2,1.2855,1,2,0.47963,0,0,
1,0.2476,2,1,1,1.7799,1,1,0.12699,0,0,
1,0.26051,2,2,2,1.7014,1,1,0.15533,0,0,
1,0.26808,2,1,1,1.4925,1,1,0.11537,0,0,
1,0.23976,2,2,2,1.9677,1,2,0.44617,0,0,
1,0.2787,2,1,1,1.4762,1,2,0.37954,0,0,
1,0.2718,2,2,2,1.9949,1,1,0.15212,0,0,
1,0.30443,2,1,1,1.4906,1,2,0.37055,0,0,
1,1.3379,2,2,1,1.2406,1,2,0.36939,0,1,
1,0.59672,2,2,1,1.0089,1,1,0.12183,0,1,
1,0.58863,2,2,1,1.6716,1,1,0.11869,0,1,
1,0.4345,2,2,1,1.9048,1,2,0.34975,0,1,
1,0.56301,2,1,2,1.5724,1,1,0.14761,0,1,
1,0.49933,2,1,2,1.1555,1,2,0.44202,0,1,
1,0.48135,2,2,1,1.5024,1,2,0.37263,0,1,
1,0.8663,2,2,1,1.5677,1,1,0.12076,0,1,
1,0.48509,2,1,2,1.1883,1,2,0.44082,0,1,
1,0.52736,2,1,2,1.3242,1,1,0.15722,0,1,
1,0.39618,2,1,2,1.716,1,1,0.14807,0,1,
1,0.42091,2,1,2,1.5529,1,1,0.1591,0,1,
1,0.53163,2,1,2,1.1423,1,2,0.46163,0,1,
1,0.51047,2,2,1,1.3804,1,1,0.12192,0,1,
1,0.38871,2,2,1,1.3966,1,1,0.11724,0,1,
1,0.33907,2,1,2,1.5767,1,1,0.15875,0,1,
1,0.4144,2,1,2,1.0194,1,1,0.1541,0,1,
1,0.3742,2,2,1,1.5776,1,1,0.12224,0,1,
1,0.56495,2,1,2,1.9322,1,2,0.45677,0,1,
1,0.51584,2,2,2,1.1069,0,2,0.47278,0,1,
1,0.69223,2,2,1,1.7321,1,1,0.11543,0,1,
1,0.4935,2,1,2,1.9705,1,1,0.15532,0,1,
1,0.49953,2,2,1,1.6089,1,1,0.12641,0,1,
1,1.5648,2,2,1,1.7197,1,2,0.3616,0,1,
1,0.49257,2,1,2,1.3028,1,1,0.15635,0,1,
1,0.66036,2,2,1,1.459,1,1,0.11853,0,1,
1,0.43595,2,1,2,1.048,1,1,0.15554,0,1,
1,0.51267,2,2,1,1.3854,1,1,0.1182,0,1,
1,0.45206,2,1,2,1.3617,1,1,0.15902,0,1,
1,0.53383,2,2,1,1.2876,1,2,0.37636,0,1,
1,0.45745,2,2,1,1.8167,1,2,0.38326,0,1,
1,0.4322,2,2,1,1.4505,1,2,0.36142,0,1,
1,0.39261,2,2,1,1.8066,1,1,0.12065,0,1,
1,0.43554,2,1,2,1.7902,1,2,0.46622,0,1,
1,0.589,2,2,1,1.283,1,2,0.37837,0,1,
1,0.51989,2,2,1,1.0683,1,2,0.34463,0,1,
1,0.44828,2,1,2,1.0549,1,2,0.44459,0,1,
1,0.38783,2,1,2,1.6375,1,1,0.16168,0,1,
1,0.49087,2,2,1,1.4243,1,2,0.38299,0,1,
1,0.39214,2,1,2,1.9055,1,2,0.4584,0,1,
1,0.38308,2,1,2,1.4173,1,2,0.47768,0,1,
1,0.42998,2,1,2,1.1541,1,1,0.16141,0,1,
1,0.55525,2,2,1,1.54,1,2,0.37105,0,1,
1,0.4843,2,2,1,1.9371,1,1,0.11948,0,1,
1,0.48536,2,1,2,1.661,1,2,0.45591,0,1,
1,0.52889,2,2,1,1.3947,1,2,0.36119,0,1,
1,0.56253,2,2,1,1.259,1,1,0.12377,0,1,
1,0.53236,2,1,2,1.8479,1,2,0.45904,0,1,
1,0.54913,2,2,1,1.9451,1,2,0.38323,0,1,
1,0.53796,2,2,1,1.377,1,2,0.35771,0,1,
1,0.52209,2,2,1,1.0673,1,1,0.11902,0,1,
1,0.53789,2,2,1,1.1816,1,1,0.1269,0,1,
1,0.42479,2,2,1,1.5757,1,1,0.12188,0,1,
1,0.45661,2,2,1,1.1859,1,2,0.37433,0,1,
1,0.45563,2,1,2,1.2914,1,2,0.44141,0,1,
1,0.44123,2,2,1,1.4617,1,2,0.36179,0,1,
1,0.37017,2,1,2,1.347,1,1,0.14629,0,1,
1,0.37189,2,1,2,1.3182,1,2,0.46964,0,1,
1,0.34166,2,1,2,1.4599,1,2,0.47183,0,1,
1,0.32587,2,1,2,1.2359,1,1,0.16122,0,1,
1,0.38996,2,1,2,1.0278,1,2,0.46946,0,1,
1,0.3752,2,1,2,1.6585,1,1,0.15703,0,1,
1,0.53814,2,2,1,1.1588,1,2,0.37886,0,1,
1,0.72509,2,1,2,1.8027,1,2,0.45919,0,1,
1,0.84558,2,2,1,1.4086,1,1,0.12067,0,1,
1,0.52109,2,2,1,1.3274,1,1,0.1256,0,1,
1,0.55969,2,2,1,1.746,1,2,0.3776,0,1,
1,0.38338,2,1,2,1.7464,1,1,0.14825,0,1,
1,0.40165,2,1,2,1.174,1,1,0.14547,0,1,
1,0.56233,2,2,1,1.1175,1,1,0.11522,0,1,
1,0.55639,2,2,1,1.174,1,2,0.34909,0,1,
1,0.41897,2,1,2,1.6274,1,2,0.44378,0,1,
1,0.44871,2,1,2,1.8419,1,1,0.15587,0,1,
1,0.49288,2,2,1,1.5101,1,2,0.34456,0,1,
1,0.46828,2,1,2,1.1658,1,1,0.15314,0,1,
1,0.45081,2,1,2,1.7143,1,1,0.15682,0,1,
1,0.52191,2,1,2,1.907,1,2,0.4409,0,1,
1,0.57035,2,2,1,1.2185,1,1,0.11762,0,1,
1,0.52786,2,1,2,1.871,1,2,0.44983,0,1,
1,0.61102,2,1,2,1.2118,1,1,0.14795,0,1,
1,0.50835,2,1,2,1.8367,1,2,0.45163,0,1,
1,0.52693,2,2,1,1.8593,1,1,0.12552,0,1,
1,0.48339,2,2,1,1.5234,1,2,0.35545,0,1,
1,0.49118,2,1,2,1.4774,1,1,0.15858,0,1,
1,0.42847,2,1,2,1.8899,1,1,0.15457,0,1,
1,0.43659,2,1,2,1.0651,1,2,0.4638,0,1,
1,0.58385,2,2,1,1.5095,1,2,0.37353,0,1,
1,0.4565,2,1,2,1.6208,1,1,0.15855,0,1,
1,0.48266,2,1,2,1.7336,1,2,0.48266,0,1,
1,0.53297,2,2,1,1.23,1,2,0.3489,0,1,
1,0.44041,2,1,2,1.0219,1,2,0.47676,0,1,
1,0.53328,2,2,1,1.139,1,2,0.35096,0,1,
1,0.47029,2,1,2,1.7695,1,2,0.43656,0,1,
1,0.73999,2,2,1,1.9698,1,2,0.34847,0,1,
1,0.62347,2,1,2,1.3868,1,1,0.14729,0,1,
1,1.2005,2,1,2,1.9934,1,2,0.44158,0,1,
1,0.52367,2,2,1,1.3264,1,1,0.12748,0,1,
1,0.43858,2,2,1,1.1372,1,1,0.11812,0,1,
1,0.40877,2,2,1,1.3848,1,1,0.12759,0,1,
1,0.36536,2,2,1,1.5626,1,1,0.12319,0,1,
1,1.4845,2,2,2,1.8798,1,2,0.45543,1,0,
1,0.58854,2,1,1,1.3736,1,2,0.37615,1,0,
1,0.56995,2,1,1,1.7667,1,1,0.12257,1,0,
1,1.3328,2,2,2,1.1681,1,2,0.4509,1,0,
1,0.40817,2,1,2,1.5197,0,2,0.48271,1,0,
1,1.0265,2,1,2,1.6275,0,1,0.1466,1,0,
1,0.60145,2,1,1,1.7139,1,2,0.35624,1,0,
1,0.58491,2,2,2,1.3064,1,1,0.16063,1,0,
1,0.48485,2,1,1,1.2637,1,1,0.12346,1,0,
1,0.40544,2,1,1,1.916,1,1,0.12385,1,0,
1,0.41557,2,1,1,1.615,1,1,0.12088,1,0,
1,0.37789,2,1,1,1.0932,1,1,0.11634,1,0,
1,0.4129,2,1,1,1.6277,1,1,0.12771,1,0,
1,0.53197,2,2,2,1.192,1,2,0.48165,1,0,
1,0.43825,2,1,1,1.777,1,2,0.36113,1,0,
1,0.51719,2,1,1,1.8645,1,2,0.37804,1,0,
1,0.41186,2,2,2,1.3336,1,1,0.15057,1,0,
1,0.80231,2,2,2,1.1354,1,2,0.45392,1,0,
1,0.34653,2,1,1,1.7655,1,1,0.12543,1,0,
1,0.46036,2,2,2,1.3186,1,2,0.44011,1,0,
1,0.46774,2,2,2,1.2524,1,2,0.4855,1,0,
1,0.4276,2,2,2,1.2001,1,1,0.14506,1,0,
1,0.28914,2,1,1,1.069,1,2,0.35527,1,0,
1,0.40791,2,2,2,1.5519,1,2,0.43754,1,0,
1,0.43417,2,1,1,1.4038,1,2,0.36135,1,0,
1,0.43814,2,1,1,1.7501,1,2,0.37608,1,0,
1,0.44155,2,2,2,1.4872,1,1,0.16112,1,0,
1,0.49229,2,1,1,1.3848,1,2,0.36514,1,0,
1,0.46673,2,1,1,1.0614,1,1,0.12557,1,0,
1,0.41032,2,1,1,1.2137,1,2,0.36637,1,0,
1,0.3792,2,1,1,1.5439,1,2,0.3744,1,0,
1,0.42932,2,2,2,1.4106,1,2,0.43557,1,0,
1,0.43928,2,1,1,1.901,1,2,0.36277,1,0,
1,0.45651,2,1,1,1.0563,1,1,0.11781,1,0,
1,0.45365,2,2,2,1.4435,1,2,0.45081,1,0,
1,0.68854,2,2,2,1.5378,1,1,0.16212,1,0,
1,0.41745,2,1,1,1.1341,1,2,0.35175,1,0,
1,0.3772,2,2,2,1.5409,1,1,0.15399,1,0,
1,0.39233,2,2,2,1.8574,1,2,0.44656,1,0,
1,0.41169,2,2,2,1.198,1,1,0.15482,1,0,
1,0.39059,2,2,2,1.1556,1,1,0.1627,1,0,
1,0.4004,2,2,2,1.0614,1,1,0.14726,1,0,
1,0.31333,2,1,1,1.6611,1,2,0.38329,1,0,
1,0.40893,2,2,2,1.0186,1,2,0.44136,1,0,
1,0.27274,2,1,1,1.2911,1,2,0.35084,1,0,
1,0.50296,2,2,2,1.9738,1,2,0.46873,1,0,
1,0.50156,2,2,2,1.7646,1,1,0.14719,1,0,
1,0.30077,2,1,1,1.2437,1,1,0.11554,1,0,
1,0.49296,2,1,1,1.6821,1,1,0.12349,1,0,
1,0.42448,2,2,2,1.1379,1,1,0.14549,1,0,
1,0.22572,2,1,1,1.6298,1,2,0.38464,1,0,
1,0.31738,2,2,1,1.857,0,1,0.1218,1,0,
1,0.2565,2,1,1,1.8998,1,1,0.1195,1,0,
1,0.34919,2,1,1,1.3484,1,2,0.3725,1,0,
1,0.38693,2,1,1,1.4863,1,1,0.12766,1,0,
1,0.36036,2,2,2,1.6795,1,1,0.15156,1,0,
1,0.28659,2,1,1,1.7041,1,1,0.12397,1,0,
1,0.53077,2,2,2,1.4609,1,1,0.15545,1,0,
1,0.37082,2,2,2,1.3643,1,2,0.47573,1,0,
1,0.50022,2,1,1,1.2803,1,1,0.12254,1,0,
1,0.55755,2,1,1,1.0762,1,2,0.35859,1,0,
1,0.37592,2,1,1,1.4446,1,1,0.12624,1,0,
1,0.37213,2,1,1,1.1657,1,1,0.11748,1,0,
1,0.47438,2,2,2,1.3987,1,2,0.47692,1,0,
1,0.39007,2,2,2,1.9206,1,1,0.16268,1,0,
1,0.3651,2,2,2,1.5113,1,2,0.44943,1,0,
1,0.317,2,1,1,1.9141,1,1,0.12422,1,0,
1,0.46176,2,2,2,1.0919,1,2,0.46971,1,0,
1,0.44424,2,2,2,1.993,1,2,0.45639,1,0,
1,0.43414,2,2,2,1.0964,1,1,0.1536,1,0,
1,0.35056,2,1,1,1.3131,1,1,0.12768,1,0,
1,0.32281,2,2,2,1.7854,1,2,0.48558,1,0,
1,0.40401,2,2,2,1.6024,1,1,0.15781,1,0,
1,0.33098,2,1,1,1.4659,1,2,0.35894,1,0,
1,0.43781,2,2,2,1.2981,1,1,0.14571,1,0,
1,0.35279,2,2,2,1.1332,1,1,0.1551,1,0,
1,0.38189,2,2,2,1.295,1,1,0.15478,1,0,
1,0.34497,2,2,2,1.1666,1,1,0.15109,1,0,
1,0.26127,2,1,1,1.3171,1,2,0.38002,1,0,
1,0.44169,2,2,2,1.1098,1,2,0.46755,1,0,
1,0.30863,2,1,1,1.8321,1,1,0.12299,1,0,
1,0.44233,2,1,1,1.9716,1,1,0.11843,1,0,
1,0.32114,2,1,1,1.2183,1,2,0.34636,1,0,
1,0.45488,2,2,2,1.7061,1,2,0.45007,1,0,
1,0.41311,2,1,1,1.039,1,2,0.3528,1,0,
1,0.4244,2,2,2,1.6163,1,2,0.45279,1,0,
1,0.36441,2,2,2,1.6694,1,1,0.15992,1,0,
1,0.3704,2,1,1,1.0372,1,2,0.34979,1,0,
1,0.41051,2,1,1,1.0033,1,1,0.11656,1,0,
1,0.39244,2,2,2,1.1425,1,2,0.46135,1,0,
1,0.26728,2,1,1,1.8624,1,2,0.36809,1,0,
1,0.3018,2,1,1,1.276,1,1,0.11661,1,0,
1,0.31122,2,2,2,1.5317,1,2,0.46814,1,0,
1,1.2078,2,2,2,1.5222,1,1,0.15984,1,0,
1,0.26393,2,1,1,1.5676,1,2,0.37575,1,0,
1,0.35938,2,1,1,1.333,1,1,0.118,1,0,
1,0.26758,2,1,1,1.4134,1,2,0.35606,1,0,
1,0.37947,2,2,2,1.4143,1,2,0.44438,1,0,
1,0.43262,2,2,2,1.9839,1,1,0.1527,1,0,
1,0.39047,2,2,2,1.0577,1,1,0.1506,1,0,
1,NaN,2,0,1,1.2821,NaN,2,0.35432,1,1,
1,NaN,2,0,2,1.2449,NaN,1,0.14896,1,1,
1,NaN,2,0,2,1.2863,NaN,1,0.16086,1,1,
1,0.64237,2,1,2,1.9631,1,1,0.16103,1,1,
1,0.44507,2,1,2,1.2307,1,1,0.15547,1,1,
1,0.41297,2,1,2,1.5373,1,2,0.4538,1,1,
1,0.45422,2,2,2,1.205,0,1,0.15538,1,1,
1,0.59815,2,1,2,1.434,1,2,0.46992,1,1,
1,0.39795,2,2,1,1.1422,1,2,0.38064,1,1,
1,0.3716,2,2,1,1.3756,1,2,0.34686,1,1,
1,0.39776,2,1,2,1.7936,1,1,0.15432,1,1,
1,0.64105,2,2,1,1.8128,1,2,0.36076,1,1,
1,0.40045,2,1,2,1.9038,1,1,0.15572,1,1,
1,0.41458,2,1,2,1.5404,1,2,0.46403,1,1,
1,0.32238,2,2,1,1.8179,1,1,0.11748,1,1,
1,0.3277,2,2,1,1.7084,1,2,0.34755,1,1,
1,0.51797,2,1,2,1.0432,1,1,0.1452,1,1,
1,0.35626,2,1,2,1.1459,1,1,0.14603,1,1,
1,0.3808,2,1,2,1.2333,1,2,0.45158,1,1,
1,0.47879,2,2,1,1.2467,1,2,0.37563,1,1,
1,0.30575,2,2,1,1.1703,1,2,0.35692,1,1,
1,0.39292,2,1,2,1.2351,1,2,0.46728,1,1,
1,0.4679,2,2,1,1.2755,1,1,0.12833,1,1,
1,0.4176,2,2,1,1.9516,1,2,0.36999,1,1,
1,0.50334,2,1,2,1.3467,1,2,0.46301,1,1,
1,0.42438,2,2,1,1.2973,1,2,0.3527,1,1,
1,0.35965,2,2,1,1.4044,1,1,0.12464,1,1,
1,0.2846,2,1,2,1.3022,1,2,0.482,1,1,
1,0.42603,2,1,2,1.7573,1,1,0.16013,1,1,
1,0.31235,2,1,2,1.3597,1,1,0.15536,1,1,
1,0.29973,2,1,2,1.1249,1,1,0.15639,1,1,
1,0.39274,2,1,2,1.6172,1,2,0.48345,1,1,
1,0.46912,2,2,1,1.3555,1,1,0.12032,1,1,
1,0.48747,2,1,2,1.3629,1,2,0.44987,1,1,
1,0.35742,2,2,1,1.0685,1,1,0.1231,1,1,
1,0.41841,2,2,1,1.8672,1,2,0.35527,1,1,
1,0.58381,2,1,2,1.4579,1,2,0.46741,1,1,
1,0.37987,2,2,1,1.0776,1,1,0.11509,1,1,
1,0.38084,2,1,2,1.9049,1,1,0.16263,1,1,
1,0.27615,2,1,1,1.2817,0,1,0.11722,1,1,
1,0.30633,2,2,1,1.6139,1,2,0.36826,1,1,
1,0.28073,2,2,1,1.6619,1,2,0.35741,1,1,
1,0.47275,2,1,2,1.2,1,2,0.47259,1,1,
1,0.43495,2,2,1,1.96,1,1,0.11483,1,1,
1,0.31894,2,1,2,1.6651,1,1,0.14616,1,1,
1,0.30739,2,1,2,1.5413,1,1,0.16137,1,1,
1,0.51154,2,2,1,1.869,1,2,0.34688,1,1,
1,0.32813,2,2,1,1.557,1,1,0.11893,1,1,
1,0.40943,2,2,1,1.0214,1,1,0.12161,1,1,
1,0.31472,2,2,1,1.4827,1,2,0.35328,1,1,
1,0.36272,2,1,2,1.808,1,2,0.46317,1,1,
1,0.33999,2,1,2,1.736,1,1,0.15868,1,1,
1,0.33462,2,1,2,1.5723,1,2,0.46205,1,1,
1,0.55557,2,2,1,1.009,1,1,0.12743,1,1,
1,0.42091,2,2,1,1.7183,1,1,0.11642,1,1,
1,0.34154,2,1,1,1.4494,0,1,0.12009,1,1,
1,0.34096,2,2,1,1.6596,1,1,0.11822,1,1,
1,0.5467,2,1,2,1.7532,1,2,0.46613,1,1,
1,0.3941,2,2,1,1.8047,1,1,0.11495,1,1,
1,0.4295,2,1,2,1.0292,1,1,0.1461,1,1,
1,0.3583,2,2,1,1.7798,1,2,0.3564,1,1,
1,0.39192,2,2,1,1.5674,1,1,0.11577,1,1,
1,0.54804,2,2,1,1.0761,1,1,0.11673,1,1,
1,0.37498,2,1,2,1.2516,1,1,0.15137,1,1,
1,0.32028,2,1,2,1.1335,1,2,0.43711,1,1,
1,0.39791,2,1,2,1.5645,1,1,0.15738,1,1,
1,0.37088,2,1,2,1.541,1,2,0.46845,1,1,
1,0.29829,2,1,2,1.0689,1,2,0.44392,1,1,
1,0.47111,2,2,1,1.9884,1,1,0.11529,1,1,
1,0.41292,2,2,1,1.2511,1,1,0.11995,1,1,
1,0.39107,2,1,2,1.3155,1,2,0.45894,1,1,
1,0.43537,2,2,1,1.3007,1,1,0.11717,1,1,
1,0.33585,2,1,2,1.042,1,1,0.16031,1,1,
1,0.30058,2,1,2,1.5279,1,2,0.46612,1,1,
1,0.47192,2,2,1,1.256,1,2,0.3443,1,1,
1,0.29965,2,1,1,1.4087,0,2,0.38086,1,1,
1,0.49882,2,1,2,1.9475,1,2,0.4584,1,1,
1,0.41671,2,2,1,1.9193,1,2,0.34569,1,1,
1,1.0676,2,1,2,1.1212,1,1,0.14682,1,1,
1,0.51818,2,2,1,1.5919,1,2,0.38522,1,1,
1,0.39618,2,2,1,1.3597,1,2,0.37941,1,1,
1,0.32429,2,2,1,1.7193,1,2,0.3686,1,1,
1,0.27929,2,2,1,1.5236,1,1,0.11482,1,1,
1,0.43797,2,1,2,1.2608,1,1,0.15052,1,1,
1,0.28346,2,1,2,1.4931,1,2,0.45897,1,1,
1,0.46129,2,2,1,1.8558,1,2,0.34733,1,1,
1,0.38579,2,2,1,1.7244,1,1,0.12224,1,1,
1,0.40362,2,2,1,1.1991,1,1,0.11884,1,1,
1,0.37931,2,2,2,1.1573,0,2,0.45827,1,1,
1,0.056697,2,1,2,1.3705,1,2,0.46504,1,1,
1,0.46084,2,2,1,1.8623,1,2,0.34636,1,1,
1,0.32655,2,1,2,1.6848,1,2,0.43799,1,1,
1,0.42319,2,1,2,1.6342,1,1,0.15015,1,1,
1,0.55576,2,2,1,1.1413,1,2,0.36465,1,1,
1,0.35074,2,1,2,1.0793,1,1,0.15473,1,1,
1,0.39844,2,1,2,1.8761,1,1,0.14913,1,1,
1,0.39688,2,1,2,1.4204,1,2,0.48332,1,1,
1,0.3692,2,2,1,1.4877,1,1,0.12588,1,1,
1,0.39724,2,2,1,1.4603,1,1,0.12048,1,1,
1,0.40331,2,2,1,1.5157,1,2,0.3845,1,1,
1,0.34524,2,2,2,1.61,1,2,0.45304,0,0,
1,0.28124,2,2,2,1.3837,1,2,0.48458,0,0,
1,0.41246,2,1,1,1.0306,1,2,0.3821,0,0,
1,0.32053,2,1,1,1.8576,1,1,0.12248,0,0,
1,0.26073,2,2,2,1.6035,1,1,0.14675,0,0,
1,0.26337,2,1,1,1.8478,1,2,0.35821,0,0,
1,0.24549,2,1,1,1.5046,1,2,0.35447,0,0,
1,0.29045,2,2,2,1.0079,1,1,0.14955,0,0,
1,0.25998,2,1,1,1.9191,1,2,0.35247,0,0,
1,0.27936,2,2,2,1.4107,1,1,0.14506,0,0,
1,0.26453,2,1,1,1.7324,1,2,0.38058,0,0,
1,0.30864,2,1,1,1.1511,1,1,0.1206,0,0,
1,0.26565,2,1,1,1.8152,1,2,0.36704,0,0,
1,0.27386,2,1,1,1.9096,1,1,0.1187,0,0,
1,0.29241,2,2,2,1.7779,1,2,0.48786,0,0,
1,0.2879,2,1,1,1.7571,1,1,0.12819,0,0,
1,0.26759,2,2,2,1.4052,1,1,0.16207,0,0,
1,0.27491,2,2,2,1.7019,1,2,0.4698,0,0,
1,0.3236,2,2,2,1.5655,1,2,0.47305,0,0,
1,0.26649,2,1,1,1.5847,1,1,0.11895,0,0,
1,NaN,2,0,2,1.3449,NaN,1,0.15403,0,0,
1,0.085712,2,1,1,1.7042,1,2,0.35437,0,0,
1,0.46885,2,2,2,1.1609,1,1,0.15754,0,0,
1,0.44148,2,1,1,1.0015,1,1,0.12519,0,0,
1,0.24225,2,1,1,1.562,1,2,0.34661,0,0,
1,0.29739,2,2,2,1.5465,1,2,0.44635,0,0,
1,0.42654,2,2,2,1.5508,1,1,0.14848,0,0,
1,0.29217,2,2,2,1.6945,1,2,0.46752,0,0,
1,0.25487,2,1,1,1.9275,1,2,0.37329,0,0,
1,0.27708,2,2,2,1.9442,1,2,0.47898,0,0,
1,0.22669,2,1,1,1.9033,1,1,0.11471,0,0,
1,0.25119,2,1,1,1.6041,1,1,0.11716,0,0,
1,0.30282,2,2,2,1.9262,1,1,0.15308,0,0,
1,0.27721,2,1,1,1.1169,1,1,0.11956,0,0,
1,0.3461,2,1,1,1.3408,1,1,0.11904,0,0,
1,0.30669,2,2,2,1.0367,1,2,0.43832,0,0,
1,0.2932,2,2,2,1.5384,1,1,0.15832,0,0,
1,0.27654,2,1,1,1.7372,1,2,0.35969,0,0,
1,0.33771,2,1,1,1.1812,1,2,0.37111,0,0,
1,0.30662,2,2,2,1.4262,1,1,0.15454,0,0,
1,0.35228,2,2,2,1.0982,1,1,0.1459,0,0,
1,0.24714,2,1,1,1.3032,1,1,0.11859,0,0,
1,0.30923,2,1,1,1.7801,1,1,0.12792,0,0,
1,0.32145,2,1,1,1.537,1,1,0.12742,0,0,
1,0.33306,2,1,1,1.7691,1,1,0.11956,0,0,
1,0.33041,2,1,1,1.6389,1,2,0.3687,0,0,
1,0.28657,2,1,1,1.8931,1,2,0.36637,0,0,
1,0.3864,2,2,2,1.0607,1,2,0.47877,0,0,
1,0.3767,2,1,1,1.1758,1,1,0.12781,0,0,
1,0.26323,2,2,2,1.4163,1,2,0.43891,0,0,
1,0.26682,2,2,2,1.7398,1,2,0.48195,0,0,
1,0.29548,2,2,2,1.893,1,2,0.46422,0,0,
1,0.37241,2,2,2,1.0259,1,1,0.14832,0,0,
1,0.29342,2,1,1,1.1376,1,1,0.11742,0,0,
1,0.25978,2,2,2,1.4241,1,2,0.47194,0,0,
1,0.35751,2,2,2,1.7646,1,1,0.15535,0,0,
1,0.28296,2,1,1,1.5244,1,2,0.36737,0,0,
1,0.30855,2,1,1,1.7545,1,1,0.12797,0,0,
1,0.38456,2,1,1,1.1698,1,2,0.36718,0,0,
1,0.29762,2,2,2,1.6727,1,1,0.14671,0,0,
1,0.29587,2,1,1,1.6187,1,1,0.11668,0,0,
1,0.39165,2,1,1,1.0068,1,1,0.11582,0,0,
1,0.50298,2,1,1,1.7402,1,1,0.11641,0,0,
1,0.33438,2,1,1,1.9917,1,1,0.12367,0,0,
1,0.31886,2,2,2,1.1282,1,1,0.15612,0,0,
1,0.31158,2,1,1,1.3606,1,2,0.35844,0,0,
1,0.28625,2,2,2,1.1911,1,1,0.14778,0,0,
1,0.28757,2,2,2,1.7144,1,2,0.45507,0,0,
1,0.33985,2,2,2,1.1779,1,1,0.15903,0,0,
1,0.258,2,2,2,1.9868,1,1,0.15187,0,0,
1,0.31761,2,2,2,1.017,1,2,0.47463,0,0,
1,0.32099,2,2,2,1.0398,1,2,0.45015,0,0,
1,0.12464,2,2,1,1.8043,0,1,0.12322,0,0,
1,0.26793,2,2,2,1.8598,1,1,0.1606,0,0,
1,0.61681,2,2,2,1.5663,1,2,0.44574,0,0,
1,0.33465,2,2,2,1.7541,1,1,0.15328,0,0,
1,0.32861,2,1,1,1.5195,1,2,0.34789,0,0,
1,0.30972,2,1,1,1.5859,1,2,0.34867,0,0,
1,0.3096,2,1,1,1.1907,1,2,0.34593,0,0,
1,0.29249,2,2,2,1.5034,1,2,0.4391,0,0,
1,0.3194,2,2,2,1.0509,1,2,0.46768,0,0,
1,0.27602,2,1,1,1.0561,1,1,0.12002,0,0,
1,0.25164,2,1,1,1.3352,1,2,0.36959,0,0,
1,0.26161,2,1,1,1.6309,1,2,0.37898,0,0,
1,0.2694,2,2,2,1.892,1,2,0.47509,0,0,
1,0.30017,2,2,2,1.6734,1,1,0.16229,0,0,
1,0.30717,2,2,2,1.6853,1,1,0.15869,0,0,
1,0.21935,2,1,1,1.6957,1,2,0.38245,0,0,
1,0.23158,2,1,1,1.7998,1,2,0.37389,0,0,
1,0.27805,2,2,2,1.6606,1,2,0.448,0,0,
1,0.22109,2,1,1,1.5199,1,1,0.12435,0,0,
1,NaN,2,0,2,1.3317,NaN,1,0.15709,0,0,
1,0.3405,2,2,2,1.9342,1,1,0.15854,0,0,
1,0.30787,2,2,2,1.2465,1,1,0.15807,0,0,
1,0.26,2,2,2,1.5112,1,2,0.45135,0,0,
1,0.28728,2,2,2,1.7403,1,2,0.46145,0,0,
1,0.2931,2,2,2,1.2542,1,2,0.47561,0,0,
1,0.22549,2,1,1,1.8456,1,1,0.12227,0,0,
1,0.22687,2,1,1,1.5382,1,2,0.38325,0,0,
1,0.17258,2,1,1,1.9101,1,2,0.35024,0,0,
1,0.54114,2,2,2,1.4547,0,2,0.46868,0,1,
1,1.6082,2,1,2,1.029,1,1,0.15253,0,1,
1,0.62932,2,1,2,1.6371,1,1,0.15564,0,1,
1,0.33128,2,1,2,1.0595,1,1,0.15789,0,1,
1,0.27023,2,1,2,1.1692,1,1,0.15019,0,1,
1,0.27144,2,1,2,1.6847,1,1,0.14576,0,1,
1,0.26968,2,1,2,1.5546,1,1,0.15968,0,1,
1,0.42912,2,2,1,1.006,1,2,0.35831,0,1,
1,0.32153,2,1,1,1.2881,0,2,0.37056,0,1,
1,0.42197,2,2,1,1.3766,1,2,0.38069,0,1,
1,0.29126,2,2,1,1.1465,1,1,0.11813,0,1,
1,0.31842,2,2,1,1.0745,1,2,0.3852,0,1,
1,0.34971,2,1,2,1.4607,1,1,0.15966,0,1,
1,0.30658,2,1,2,1.3704,1,1,0.15887,0,1,
1,0.36741,2,1,2,1.8246,1,1,0.15643,0,1,
1,0.36989,2,2,1,1.5375,1,1,0.12186,0,1,
1,0.47704,2,2,1,1.8175,1,2,0.35903,0,1,
1,0.32232,2,2,1,1.4604,1,1,0.12583,0,1,
1,0.39771,2,1,2,1.014,1,1,0.15533,0,1,
1,0.34828,2,1,2,1.005,1,2,0.47608,0,1,
1,0.32424,2,1,2,1.1662,1,2,0.48751,0,1,
1,0.29758,2,1,2,1.3659,1,1,0.15881,0,1,
1,0.27476,2,1,2,1.7182,1,2,0.48,0,1,
1,0.56962,2,1,2,1.1594,1,1,0.15338,0,1,
1,0.31694,2,2,1,1.2788,1,1,0.12658,0,1,
1,0.34761,2,2,1,1.6449,1,2,0.35685,0,1,
1,0.33782,2,1,2,1.2872,1,1,0.14851,0,1,
1,0.32786,2,2,1,1.3219,1,1,0.12117,0,1,
1,0.39399,2,2,1,1.1554,1,2,0.34463,0,1,
1,0.32418,2,1,2,1.3877,1,1,0.15954,0,1,
1,0.34322,2,2,1,1.8957,1,1,0.118,0,1,
1,0.38614,2,1,2,1.8878,1,1,0.1568,0,1,
1,0.43275,2,2,1,1.3936,1,2,0.37626,0,1,
1,0.28024,2,1,2,1.6755,1,2,0.47064,0,1,
1,0.29027,2,1,2,1.2522,1,2,0.46896,0,1,
1,0.32256,2,2,1,1.95,1,2,0.35291,0,1,
1,0.27974,2,1,2,1.6247,1,1,0.15323,0,1,
1,0.27908,2,2,1,1.2069,1,2,0.38248,0,1,
1,0.35452,2,2,1,1.1097,1,2,0.35306,0,1,
1,0.29317,2,2,1,1.5658,1,1,0.11725,0,1,
1,0.2892,2,2,1,1.2743,1,2,0.35434,0,1,
1,0.38303,2,1,2,1.0712,1,2,0.47576,0,1,
1,0.33215,2,2,1,1.1584,1,2,0.35675,0,1,
1,0.28596,2,1,2,1.0495,1,2,0.46639,0,1,
1,0.52555,2,1,2,1.6809,1,1,0.14814,0,1,
1,0.40218,2,2,1,1.7818,1,1,0.11562,0,1,
1,0.27805,2,1,2,1.8074,1,2,0.45086,0,1,
1,0.26814,2,1,2,1.2651,1,2,0.44683,0,1,
1,0.34761,2,2,1,1.8959,1,1,0.1271,0,1,
1,0.31424,2,1,2,1.608,1,2,0.48467,0,1,
1,0.27875,2,1,2,1.0144,1,2,0.43671,0,1,
1,0.24181,2,1,2,1.344,1,2,0.46589,0,1,
1,0.28569,2,1,2,1.5337,1,2,0.43731,0,1,
1,0.39603,2,2,1,1.6278,1,1,0.1202,0,1,
1,0.30254,2,1,2,1.4467,1,1,0.15401,0,1,
1,0.31691,2,1,2,1.8111,1,2,0.47931,0,1,
1,0.27751,2,1,2,1.1448,1,2,0.46757,0,1,
1,0.21251,2,1,2,1.9748,1,2,0.44808,0,1,
1,0.36251,2,2,1,1.8338,1,2,0.38109,0,1,
1,0.29441,2,1,2,1.3401,1,2,0.4753,0,1,
1,0.32011,2,2,1,1.6162,1,1,0.12212,0,1,
1,0.28563,2,1,2,1.3038,1,1,0.16082,0,1,
1,0.31885,2,1,2,1.0892,1,2,0.45394,0,1,
1,0.32383,2,2,1,1.5215,1,2,0.35701,0,1,
1,0.3418,2,2,1,1.8253,1,2,0.36875,0,1,
1,0.2629,2,1,2,1.7639,1,2,0.43948,0,1,
1,0.22961,2,1,2,1.9476,1,2,0.45433,0,1,
1,0.36891,2,2,1,1.3335,1,1,0.11696,0,1,
1,0.35163,2,2,1,1.3897,1,2,0.37698,0,1,
1,0.36581,2,2,1,1.1504,1,2,0.37321,0,1,
1,0.32482,2,2,1,1.3337,1,2,0.37113,0,1,
1,0.3801,2,1,2,1.5537,1,1,0.16113,0,1,
1,0.36935,2,2,1,1.5503,1,2,0.37743,0,1,
1,0.52909,2,2,1,1.1604,1,2,0.36579,0,1,
1,0.34205,2,1,2,1.1171,1,1,0.1453,0,1,
1,0.39028,2,2,1,1.3986,1,1,0.11572,0,1,
1,0.43245,2,2,1,1.8314,1,1,0.12145,0,1,
1,0.31237,2,1,2,1.185,1,1,0.16185,0,1,
1,0.33201,2,2,1,1.5008,1,2,0.37839,0,1,
1,0.3247,2,1,2,1.1263,1,2,0.48456,0,1,
1,0.37873,2,2,1,1.8646,1,1,0.12804,0,1,
1,0.38112,2,2,1,1.7666,1,1,0.11948,0,1,
1,0.35427,2,2,1,1.5644,1,1,0.11877,0,1,
1,0.33278,2,2,1,1.3896,1,1,0.12527,0,1,
1,0.30949,2,1,2,1.4901,1,1,0.14862,0,1,
1,0.38224,2,2,1,1.8869,1,1,0.12783,0,1,
1,0.28888,2,1,2,1.905,1,2,0.4843,0,1,
1,0.37338,2,2,1,1.4984,1,1,0.11939,0,1,
1,0.36893,2,2,1,1.5292,1,1,0.1191,0,1,
1,0.29085,2,1,2,1.9097,1,2,0.47123,0,1,
1,0.40328,2,2,1,1.5786,1,1,0.12431,0,1,
1,0.36428,2,2,1,1.7758,1,1,0.12551,0,1,
1,0.33539,2,2,1,1.6614,1,1,0.12256,0,1,
1,0.38078,2,2,1,1.4697,1,2,0.34726,0,1,
1,0.33591,2,2,1,1.2198,1,2,0.36624,0,1,
1,0.24084,2,1,2,1.6026,1,1,0.14576,0,1,
1,0.273,2,1,2,1.1843,1,2,0.47477,0,1,
1,0.29222,2,1,2,1.1975,1,1,0.15648,0,1,
1,0.36144,2,2,1,1.862,1,1,0.12264,0,1,
1,0.34418,2,2,1,1.1256,1,2,0.35249,0,1,
1,0.37027,2,1,1,1.8531,1,2,0.36657,1,0,
1,0.532,2,1,1,1.4291,1,1,0.11721,1,0,
1,0.34525,2,2,2,1.9257,1,2,0.48504,1,0,
1,0.40729,2,2,2,1.3731,1,2,0.46157,1,0,
1,0.29642,2,1,1,1.6982,1,1,0.11816,1,0,
1,0.45673,2,1,1,1.5886,1,2,0.35257,1,0,
1,0.37433,2,1,1,1.1009,1,1,0.12774,1,0,
1,0.40811,2,2,2,1.4124,1,2,0.47105,1,0,
1,0.37331,2,2,2,1.9247,1,1,0.15735,1,0,
1,0.31207,2,1,1,1.0556,1,1,0.12346,1,0,
1,0.38439,2,1,1,1.384,1,2,0.37561,1,0,
1,0.30914,2,1,1,1.2406,1,2,0.36713,1,0,
1,0.44555,2,2,2,1.2278,1,1,0.15369,1,0,
1,0.3715,2,2,2,1.3571,1,1,0.16048,1,0,
1,0.36867,2,1,1,1.9241,1,2,0.35928,1,0,
1,0.27023,2,1,1,1.5025,1,1,0.11771,1,0,
1,0.34636,2,1,1,1.8032,1,1,0.11824,1,0,
1,0.39472,2,1,1,1.3503,1,2,0.38109,1,0,
1,0.38212,2,2,2,1.4587,1,2,0.47177,1,0,
1,0.49266,2,1,1,1.9511,1,1,0.12628,1,0,
1,0.31,2,2,2,1.133,1,1,0.1515,1,0,
1,0.37383,2,2,2,1.0703,1,1,0.156,1,0,
1,0.27153,2,1,1,1.7061,1,2,0.34464,1,0,
1,0.53003,2,1,1,1.9317,1,1,0.12725,1,0,
1,0.46807,2,2,2,1.1089,1,2,0.45929,1,0,
1,0.37532,2,2,2,1.6517,1,2,0.46195,1,0,
1,0.3328,2,1,1,1.1461,1,1,0.12502,1,0,
1,0.43877,2,2,2,1.694,1,1,0.15076,1,0,
1,0.32019,2,1,1,1.6256,1,1,0.12302,1,0,
1,0.34921,2,1,1,1.0437,1,1,0.11885,1,0,
1,0.61527,2,2,2,1.7979,1,1,0.15033,1,0,
1,0.30378,2,1,1,1.9862,1,2,0.36991,1,0,
1,1.511,2,2,2,1.4367,1,2,0.45739,1,0,
1,0.76878,2,2,2,1.3447,1,1,0.14676,1,0,
1,0.41387,2,2,2,1.0488,1,2,0.4471,1,0,
1,0.37639,2,1,1,1.2252,1,2,0.38404,1,0,
1,0.39185,2,2,2,1.581,1,1,0.15719,1,0,
1,0.40017,2,2,2,1.6014,1,2,0.46943,1,0,
1,0.30647,2,1,1,1.2525,1,2,0.35653,1,0,
1,0.24444,2,1,1,1.6543,1,1,0.11473,1,0,
1,0.28222,2,1,1,1.0601,1,2,0.3667,1,0,
1,0.59274,2,1,1,1.9405,1,2,0.34483,1,0,
1,0.31534,2,1,1,1.0925,1,2,0.35402,1,0,
1,0.29112,2,1,1,1.334,1,2,0.35101,1,0,
1,0.30887,2,1,1,1.651,1,1,0.12054,1,0,
1,0.55094,2,2,2,1.5039,1,2,0.47537,1,0,
1,0.37226,2,1,1,1.5309,1,2,0.36914,1,0,
1,0.40446,2,2,2,1.3791,1,2,0.45116,1,0,
1,0.40992,2,2,2,1.7689,1,2,0.44999,1,0,
1,0.44598,2,2,2,1.2825,1,1,0.14635,1,0,
1,0.47703,2,2,2,1.6493,1,1,0.14794,1,0,
1,0.37289,2,2,2,1.9222,1,1,0.15759,1,0,
1,0.34113,2,2,2,1.3307,1,2,0.43961,1,0,
1,0.36617,2,2,2,1.8134,1,2,0.4836,1,0,
1,0.32876,2,2,2,1.7876,1,2,0.45718,1,0,
1,0.42336,2,1,1,1.1243,1,1,0.11552,1,0,
1,0.85741,2,2,2,1.1574,1,1,0.15491,1,0,
1,0.31037,2,1,1,1.415,1,2,0.3779,1,0,
1,0.39153,2,2,2,1.6873,1,1,0.15095,1,0,
1,0.45881,2,2,2,1.6577,1,2,0.47598,1,0,
1,0.38152,2,2,2,1.68,1,1,0.15736,1,0,
1,0.3716,2,1,1,1.0094,1,2,0.36757,1,0,
1,0.2749,2,1,1,1.1286,1,2,0.35863,1,0,
1,0.51189,2,1,1,1.7639,1,2,0.35932,1,0,
1,0.46971,2,2,2,1.8419,1,1,0.15237,1,0,
1,0.39971,2,1,1,1.7469,1,2,0.36053,1,0,
1,0.34489,2,1,1,1.9445,1,1,0.11739,1,0,
1,0.31283,2,1,1,1.9197,1,1,0.1212,1,0,
1,0.43035,2,2,2,1.2231,1,1,0.1457,1,0,
1,0.41438,2,2,2,1.5098,1,1,0.15478,1,0,
1,0.46278,2,2,2,1.7877,1,2,0.43758,1,0,
1,0.44208,2,2,2,1.5225,1,2,0.48107,1,0,
1,0.30893,2,1,1,1.6174,1,1,0.12638,1,0,
1,0.38787,2,2,2,1.5582,1,1,0.1508,1,0,
1,0.30177,2,1,1,1.731,1,1,0.12805,1,0,
1,0.37671,2,1,1,1.0634,1,1,0.12776,1,0,
1,0.43123,2,2,2,1.4928,1,2,0.48756,1,0,
1,0.40484,2,2,2,1.2299,1,1,0.14769,1,0,
1,0.38984,2,2,2,1.3374,1,1,0.14509,1,0,
1,0.44305,2,1,1,1.5516,1,1,0.11778,1,0,
1,0.29307,2,1,1,1.7437,1,1,0.11912,1,0,
1,0.40157,2,2,2,1.4123,1,1,0.14899,1,0,
1,0.34727,2,2,2,1.5076,1,2,0.47467,1,0,
1,0.39094,2,2,2,1.129,1,1,0.14886,1,0,
1,0.33865,2,2,2,1.2148,1,2,0.45816,1,0,
1,0.34969,2,2,2,1.2928,1,2,0.4483,1,0,
1,0.5545,2,1,1,1.45,1,1,0.11911,1,0,
1,0.43245,2,2,2,1.2403,1,2,0.48278,1,0,
1,0.39365,2,1,1,1.2633,1,2,0.3439,1,0,
1,0.41952,2,1,1,1.8916,1,2,0.34866,1,0,
1,0.47588,2,2,2,1.5861,1,1,0.15166,1,0,
1,0.44193,2,1,2,1.9387,0,2,0.47932,1,0,
1,0.44956,2,1,1,1.6181,1,2,0.35193,1,0,
1,0.34574,2,1,1,1.2507,1,1,0.12748,1,0,
1,0.33866,2,1,1,1.1025,1,2,0.38396,1,0,
1,0.42415,2,2,2,1.5464,1,1,0.15144,1,0,
1,0.51981,2,1,1,1.4426,1,2,0.38462,1,0,
1,0.41489,2,1,1,1.6915,1,1,0.11608,1,0,
1,0.32998,2,1,1,1.7594,1,1,0.12494,1,0,
1,0.39354,2,2,2,1.3994,1,2,0.46512,1,0,
1,1.4151,2,1,2,1.2021,1,1,0.16035,1,1,
1,0.34882,2,2,1,1.4924,1,1,0.1185,1,1,
1,0.33167,2,1,2,1.7294,1,2,0.44709,1,1,
1,0.32116,2,2,1,1.955,1,1,0.12596,1,1,
1,0.55025,2,2,1,1.7624,1,1,0.12038,1,1,
1,0.41048,2,2,1,1.0801,1,1,0.12135,1,1,
1,0.41044,2,2,1,1.9382,1,1,0.11693,1,1,
1,0.37665,2,2,1,1.9745,1,2,0.34943,1,1,
1,0.32829,2,2,1,1.6071,1,2,0.38118,1,1,
1,0.335,2,2,1,1.9575,1,2,0.38497,1,1,
1,0.32479,2,2,2,1.3307,0,1,0.1517,1,1,
1,0.47186,2,2,1,1.9012,1,1,0.1259,1,1,
1,0.46531,2,1,2,1.0004,1,2,0.48563,1,1,
1,0.44933,2,2,1,1.4833,1,2,0.38061,1,1,
1,0.95663,2,2,1,1.1475,1,2,0.3783,1,1,
1,0.47052,2,2,1,1.315,1,1,0.12383,1,1,
1,0.42009,2,1,2,1.1714,1,1,0.14793,1,1,
1,0.48247,2,2,1,1.5929,1,1,0.11764,1,1,
1,0.36279,2,2,1,1.6576,1,2,0.361,1,1,
1,0.42416,2,1,2,1.349,1,2,0.43637,1,1,
1,0.54591,2,2,1,1.0537,1,2,0.35418,1,1,
1,0.45911,2,2,1,1.0472,1,2,0.38441,1,1,
1,0.37817,2,1,2,1.0559,1,2,0.45106,1,1,
1,0.53916,2,2,1,1.0715,1,2,0.36676,1,1,
1,0.35409,2,1,2,1.0157,1,1,0.15562,1,1,
1,0.40092,2,1,2,1.9737,1,2,0.4827,1,1,
1,0.31172,2,1,2,1.7348,1,2,0.45541,1,1,
1,0.3045,2,1,2,1.7524,1,2,0.47123,1,1,
1,0.36236,2,1,2,1.0333,1,1,0.14849,1,1,
1,0.30703,2,1,2,1.1176,1,2,0.43827,1,1,
1,0.4516,2,2,1,1.2613,1,2,0.3689,1,1,
1,0.37415,2,2,1,1.8934,1,2,0.3717,1,1,
1,0.35571,2,2,1,1.9721,1,1,0.11844,1,1,
1,0.39493,2,2,1,1.9941,1,1,0.12225,1,1,
1,0.35215,2,2,1,1.3468,1,2,0.35612,1,1,
1,0.40515,2,1,2,1.2923,1,2,0.47761,1,1,
1,0.32126,2,1,2,1.1872,1,2,0.45381,1,1,
1,0.32317,2,1,2,1.7431,1,1,0.15719,1,1,
1,0.47577,2,1,2,1.718,1,1,0.15601,1,1,
1,0.38175,2,1,2,1.1889,1,2,0.48621,1,1,
1,0.38454,2,2,1,1.4339,1,1,0.11714,1,1,
1,0.41425,2,1,2,1.0456,1,1,0.15538,1,1,
1,0.409,2,2,1,1.6555,1,1,0.11557,1,1,
1,0.415,2,1,2,1.781,1,2,0.46325,1,1,
1,0.40802,2,2,1,1.8629,1,2,0.37853,1,1,
1,0.33303,2,1,2,1.7854,1,1,0.14572,1,1,
1,0.36618,2,1,2,1.4335,1,1,0.15064,1,1,
1,0.34114,2,2,1,1.3478,1,1,0.1242,1,1,
1,0.382,2,1,2,1.0554,1,1,0.16014,1,1,
1,0.46848,2,2,1,1.8194,1,1,0.12126,1,1,
1,0.30419,2,2,1,1.106,1,2,0.38506,1,1,
1,0.39287,2,1,2,1.0061,1,2,0.45712,1,1,
1,0.35244,2,1,2,1.275,1,2,0.44871,1,1,
1,0.28266,2,1,2,1.9428,1,2,0.45946,1,1,
1,0.2985,2,1,2,1.6743,1,1,0.14775,1,1,
1,0.24242,2,1,1,1.3857,0,1,0.11658,1,1,
1,0.31078,2,1,2,1.8569,1,1,0.14959,1,1,
1,0.2954,2,1,2,1.6748,1,1,0.15825,1,1,
1,0.37836,2,2,1,1.6081,1,1,0.12278,1,1,
1,0.39457,2,1,2,1.4394,1,1,0.16212,1,1,
1,0.44529,2,1,2,1.9613,1,2,0.47563,1,1,
1,0.35446,2,2,1,1.8229,1,1,0.12227,1,1,
1,0.42244,2,1,2,1.0105,1,1,0.15275,1,1,
1,0.299,2,2,1,1.1416,1,2,0.35493,1,1,
1,0.50058,2,2,1,1.4828,1,2,0.37446,1,1,
1,0.35684,2,2,1,1.5806,1,1,0.11571,1,1,
1,0.33428,2,2,1,1.293,1,1,0.11588,1,1,
1,0.295,2,2,1,1.4389,1,2,0.37371,1,1,
1,0.39078,2,1,2,1.3983,1,2,0.45324,1,1,
1,0.31906,2,1,2,1.1373,1,2,0.46519,1,1,
1,0.35788,2,2,1,1.9528,1,2,0.35541,1,1,
1,0.58994,2,2,1,1.36,1,1,0.12427,1,1,
1,0.27653,2,1,2,1.837,1,1,0.15118,1,1,
1,0.36234,2,1,2,1.0413,1,1,0.15754,1,1,
1,0.44726,2,1,2,1.4238,1,1,0.16265,1,1,
1,0.32487,2,1,2,1.0756,1,1,0.14644,1,1,
1,0.31355,2,1,2,1.3138,1,2,0.45921,1,1,
1,0.52963,2,2,1,1.946,1,1,0.11571,1,1,
1,0.37284,2,1,2,1.8545,1,1,0.15767,1,1,
1,0.32365,2,1,2,1.1735,1,1,0.16109,1,1,
1,0.31508,2,1,2,1.5359,1,2,0.43946,1,1,
1,0.30923,2,2,1,1.2949,1,2,0.36458,1,1,
1,0.28815,2,2,1,1.9029,1,2,0.36595,1,1,
1,0.29074,2,2,1,1.0814,1,2,0.37158,1,1,
1,0.57165,2,1,2,1.7875,1,2,0.45038,1,1,
1,0.35513,2,2,1,1.1744,1,2,0.36803,1,1,
1,0.36844,2,1,2,1.72,1,1,0.14839,1,1,
1,0.65542,2,1,2,1.232,1,2,0.46928,1,1,
1,0.3121,2,2,1,1.2071,1,2,0.37214,1,1,
1,0.46266,2,2,1,1.2161,1,1,0.12069,1,1,
1,0.45539,2,2,1,1.9767,1,2,0.34968,1,1,
1,0.42319,2,2,1,1.3818,1,1,0.12016,1,1,
1,0.31928,2,1,2,1.6353,1,2,0.46602,1,1,
1,0.45187,2,2,1,1.0466,1,1,0.11879,1,1,
1,0.31626,2,1,2,1.2321,1,1,0.15959,1,1,
1,0.31432,2,2,1,1.8748,1,1,0.11609,1,1,
1,0.22726,2,1,2,1.4601,1,2,0.44788,1,1,
1,0.47629,2,1,2,1.0031,1,2,0.48471,1,1,
1,0.36326,2,1,2,1.4649,1,1,0.1564,1,1,
1,0.28791,2,2,1,1.8241,1,2,0.37449,1,1,
1,0.33453,2,2,2,1.0905,1,2,0.46185,0,0,
1,0.30652,2,1,1,1.0082,1,1,0.12425,0,0,
1,0.26618,2,2,2,1.3728,1,2,0.44832,0,0,
1,0.25434,2,1,1,1.7883,1,2,0.34796,0,0,
1,0.32601,2,2,2,1.4473,1,1,0.15451,0,0,
1,0.28423,2,2,2,1.0996,1,1,0.14874,0,0,
1,0.23755,2,2,2,1.8058,1,2,0.45103,0,0,
1,0.24895,2,1,1,1.6595,1,2,0.3841,0,0,
1,0.25691,2,1,1,1.4524,1,1,0.11861,0,0,
1,0.27457,2,2,2,1.5334,1,1,0.16173,0,0,
1,0.28141,2,2,2,1.5267,1,1,0.15206,0,0,
1,0.21601,2,1,1,1.6297,1,2,0.3438,0,0,
1,0.23075,2,1,1,1.6466,1,2,0.35587,0,0,
1,0.34723,2,1,1,1.1918,1,1,0.11653,0,0,
1,0.26195,2,1,1,1.8017,1,2,0.38503,0,0,
1,0.29525,2,1,1,1.1966,1,2,0.36166,0,0,
1,0.28369,2,1,1,1.4113,1,1,0.12188,0,0,
1,0.34317,2,2,2,1.2357,1,1,0.14948,0,0,
1,0.29515,2,2,2,1.2722,1,2,0.48164,0,0,
1,0.29071,2,1,1,1.0087,1,1,0.11583,0,0,
1,0.29161,2,2,2,1.9283,1,2,0.47838,0,0,
1,0.22606,2,1,1,1.5202,1,2,0.3607,0,0,
1,0.20812,2,2,2,1.4641,1,2,0.48374,0,0,
1,0.19787,2,1,1,1.5235,1,1,0.12164,0,0,
1,0.31429,2,1,1,1.3368,1,1,0.12654,0,0,
1,0.2768,2,1,1,1.3324,1,2,0.35763,0,0,
1,0.27822,2,2,2,1.9883,1,1,0.15187,0,0,
1,0.23702,2,2,2,1.4737,1,2,0.46612,0,0,
1,0.24402,2,2,2,1.7469,1,1,0.16108,0,0,
1,0.26178,2,2,2,1.67,1,2,0.44182,0,0,
1,0.21767,2,1,1,1.7956,1,2,0.34506,0,0,
1,0.26947,2,1,1,1.2725,1,2,0.35962,0,0,
1,0.3193,2,1,2,1.2839,0,1,0.15533,0,0,
1,0.31337,2,2,2,1.7173,1,1,0.16124,0,0,
1,0.32036,2,2,2,1.1846,1,1,0.15003,0,0,
1,0.24149,2,1,1,1.8337,1,2,0.36563,0,0,
1,0.3026,2,1,1,1.1697,1,1,0.12524,0,0,
1,0.26888,2,2,2,1.9533,1,2,0.45182,0,0,
1,0.36369,2,2,2,1.7225,1,1,0.14664,0,0,
1,0.30569,2,1,1,1.1342,1,1,0.12044,0,0,
1,0.29122,2,2,2,1.8531,1,1,0.14552,0,0,
1,0.3281,2,2,2,1.9317,1,2,0.47029,0,0,
1,0.31764,2,2,2,1.5642,1,1,0.14691,0,0,
1,0.30909,2,1,1,1.3988,1,2,0.35138,0,0,
1,0.30238,2,2,2,1.4416,1,1,0.15416,0,0,
1,0.21108,2,1,1,1.7017,1,1,0.12304,0,0,
1,0.28342,2,1,1,1.26,1,2,0.35848,0,0,
1,0.32666,2,1,1,1.0285,1,2,0.36823,0,0,
1,0.3402,2,1,1,1.948,1,1,0.12618,0,0,
1,0.25534,2,2,2,1.9962,1,2,0.47173,0,0,
1,0.25214,2,2,2,1.7795,1,1,0.15175,0,0,
1,0.21499,2,1,1,1.9894,1,2,0.36676,0,0,
1,0.26808,2,2,2,1.4876,1,1,0.14927,0,0,
1,0.2558,2,1,2,1.128,0,2,0.47311,0,0,
1,0.31939,2,2,2,1.4644,1,1,0.15088,0,0,
1,0.2196,2,1,1,1.7426,1,2,0.34652,0,0,
1,0.3082,2,2,2,1.6734,1,1,0.15017,0,0,
1,0.28977,2,1,1,1.874,1,2,0.35548,0,0,
1,0.49198,2,1,1,1.7583,1,1,0.11477,0,0,
1,0.3327,2,1,1,1.6172,1,2,0.35043,0,0,
1,0.31794,2,2,2,1.2748,1,2,0.48045,0,0,
1,0.3599,2,2,2,1.3364,1,2,0.46924,0,0,
1,0.27729,2,1,1,1.8357,1,2,0.37898,0,0,
1,0.35057,2,1,1,1.3859,1,2,0.35427,0,0,
1,0.42559,2,2,2,1.0803,1,2,0.48239,0,0,
1,0.27262,2,1,1,1.8656,1,1,0.11725,0,0,
1,0.28018,2,1,1,1.4354,1,2,0.38371,0,0,
1,0.35663,2,2,2,1.1721,1,2,0.45637,0,0,
1,0.35502,2,1,1,1.0043,1,1,0.11753,0,0,
1,0.28024,2,2,2,1.6525,1,1,0.15937,0,0,
1,0.25341,2,1,1,1.3697,1,1,0.11931,0,0,
1,0.3271,2,1,1,1.3761,1,2,0.3638,0,0,
1,0.26608,2,2,2,1.4413,1,1,0.15807,0,0,
1,0.24075,2,1,1,1.5161,1,1,0.12597,0,0,
1,0.25948,2,1,1,1.3001,1,1,0.11978,0,0,
1,0.24852,2,1,1,1.4783,1,1,0.11574,0,0,
1,0.27827,2,1,1,1.0062,1,1,0.11802,0,0,
1,0.28367,2,1,1,1.1714,1,2,0.37617,0,0,
1,0.26778,2,2,2,1.3036,1,2,0.48467,0,0,
1,0.29588,2,2,2,1.7445,1,1,0.15484,0,0,
1,0.30872,2,2,2,1.5809,1,2,0.48473,0,0,
1,0.27603,2,2,2,1.7012,1,2,0.46608,0,0,
1,0.23722,2,2,2,1.8047,1,1,0.16251,0,0,
1,0.24698,2,1,1,1.852,1,1,0.12496,0,0,
1,0.27036,2,2,2,1.1177,1,2,0.44451,0,0,
1,0.27058,2,2,2,1.6573,1,1,0.15393,0,0,
1,0.30944,2,2,2,1.753,1,2,0.46839,0,0,
1,0.23149,2,1,1,1.7021,1,1,0.12651,0,0,
1,0.23357,2,1,1,1.6051,1,2,0.36796,0,0,
1,0.42521,2,1,1,1.0383,1,1,0.12843,0,0,
1,0.3191,2,2,2,1.1952,1,2,0.44163,0,0,
1,0.22788,2,1,1,1.3307,1,1,0.1184,0,0,
1,0.24062,2,1,1,1.6428,1,1,0.12092,0,0,
1,0.2562,2,2,2,1.2174,1,1,0.14722,0,0,
1,0.28879,2,2,2,1.0769,1,2,0.44669,0,0,
1,0.22713,2,1,1,1.9806,1,2,0.35063,0,0,
1,0.27307,2,1,1,1.2068,1,1,0.12367,0,0,
1,0.26773,2,2,2,1.9833,1,1,0.15058,0,0,
1,0.31822,2,2,2,1.6104,1,2,0.47657,0,0,
1,0.30676,2,1,2,1.248,0,2,0.46334,0,0,
1,0.69534,2,2,1,1.4796,1,1,0.12838,0,1,
1,0.47335,2,2,2,1.8888,0,2,0.44859,0,1,
1,0.62643,2,2,1,1.2834,1,1,0.12539,0,1,
1,0.40526,2,1,2,1.7841,1,1,0.1473,0,1,
1,0.4666,2,2,1,1.1704,1,2,0.3448,0,1,
1,0.55332,2,2,1,1.7313,1,2,0.36182,0,1,
1,0.6156,2,1,1,1.2466,0,2,0.36639,0,1,
1,0.54147,2,2,1,1.0818,1,2,0.35264,0,1,
1,0.44767,2,1,2,1.8529,1,1,0.14747,0,1,
1,0.52855,2,2,1,1.6866,1,2,0.37123,0,1,
1,0.58386,2,2,1,1.9581,1,1,0.11923,0,1,
1,0.34711,2,1,2,1.9851,1,2,0.46145,0,1,
1,0.54156,2,2,1,1.5347,1,1,0.124,0,1,
1,0.58121,2,1,2,1.906,1,2,0.46598,0,1,
1,0.35424,2,1,2,1.4766,1,2,0.46122,0,1,
1,0.46416,2,2,1,1.8897,1,2,0.3755,0,1,
1,0.5303,2,2,1,1.0238,1,2,0.37158,0,1,
1,0.52834,2,1,2,1.1287,1,2,0.45141,0,1,
1,0.40201,2,1,2,1.7406,1,2,0.47886,0,1,
1,0.35261,2,1,2,1.391,1,1,0.1565,0,1,
1,0.28454,2,1,2,1.3936,1,1,0.15518,0,1,
1,0.28568,2,1,2,1.6018,1,1,0.14536,0,1,
1,0.41805,2,2,1,1.0239,1,1,0.12604,0,1,
1,0.35936,2,1,2,1.3877,1,2,0.44086,0,1,
1,0.43943,2,2,1,1.0567,1,1,0.12609,0,1,
1,0.4472,2,2,1,1.6896,1,1,0.119,0,1,
1,0.33306,2,1,2,1.5204,1,1,0.15239,0,1,
1,0.31312,2,1,2,1.0761,1,1,0.15892,0,1,
1,0.32907,2,2,1,1.4063,1,1,0.11635,0,1,
1,0.35045,2,1,2,1.4302,1,1,0.15555,0,1,
1,0.43217,2,2,1,1.6593,1,1,0.12741,0,1,
1,0.41005,2,2,1,1.2184,1,1,0.12317,0,1,
1,0.51113,2,2,1,1.0811,1,2,0.34529,0,1,
1,0.38216,2,2,1,1.4677,1,2,0.37214,0,1,
1,0.28972,2,1,2,1.7287,1,1,0.14939,0,1,
1,0.58264,2,2,1,1.614,1,1,0.12394,0,1,
1,0.37908,2,1,2,1.9006,1,2,0.45369,0,1,
1,0.39586,2,2,1,1.2528,1,2,0.3655,0,1,
1,0.46327,2,2,1,1.2201,1,2,0.35229,0,1,
1,0.34007,2,1,2,1.2358,1,1,0.16097,0,1,
1,0.31883,2,1,2,1.8101,1,1,0.15141,0,1,
1,0.29058,2,1,2,1.7024,1,2,0.43908,0,1,
1,0.28268,2,1,2,1.8785,1,1,0.14555,0,1,
1,0.49043,2,2,1,1.711,1,2,0.36909,0,1,
1,0.33957,2,1,2,1.6611,1,2,0.48467,0,1,
1,0.58273,2,2,1,1.4396,1,2,0.35628,0,1,
1,0.37219,2,1,2,1.5628,1,1,0.15803,0,1,
1,0.46113,2,1,2,1.9903,1,2,0.44983,0,1,
1,0.33199,2,1,2,1.9573,1,1,0.14713,0,1,
1,0.45666,2,2,1,1.3368,1,1,0.12144,0,1,
1,0.39435,2,2,1,1.1555,1,1,0.11969,0,1,
1,0.26815,2,1,2,1.4171,1,2,0.487,0,1,
1,0.36224,2,2,1,1.5545,1,2,0.35513,0,1,
1,0.29963,2,1,2,1.0298,1,2,0.46582,0,1,
1,0.41417,2,1,2,1.8667,1,2,0.46469,0,1,
1,0.30162,2,1,2,1.8944,1,1,0.15569,0,1,
1,0.2883,2,1,2,1.4972,1,2,0.46414,0,1,
1,0.62227,2,2,1,1.2093,1,1,0.11821,0,1,
1,0.49071,2,2,1,1.7216,1,2,0.34945,0,1,
1,0.44474,2,2,1,1.6997,1,1,0.12454,0,1,
1,0.47715,2,1,2,1.4607,1,2,0.4371,0,1,
1,0.71742,2,1,2,1.1706,1,1,0.15906,0,1,
1,0.43648,2,2,1,1.7944,1,2,0.35984,0,1,
1,0.30045,2,1,2,1.8885,1,2,0.47874,0,1,
1,0.35443,2,1,2,1.1425,1,1,0.16219,0,1,
1,0.43674,2,2,1,1.9397,1,2,0.36051,0,1,
1,0.33771,2,1,2,1.0003,1,2,0.43782,0,1,
1,0.36713,2,2,1,1.4388,1,2,0.37596,0,1,
1,0.52347,2,2,1,1.0112,1,2,0.36923,0,1,
1,0.3066,2,1,2,1.2345,1,1,0.15379,0,1,
1,0.31034,2,2,1,1.707,1,2,0.36659,0,1,
1,0.29125,2,1,2,1.6942,1,2,0.45088,0,1,
1,0.27221,2,1,2,1.2651,1,2,0.47419,0,1,
1,0.56279,2,2,1,1.3266,1,2,0.35696,0,1,
1,0.34786,2,2,1,1.0932,1,1,0.12672,0,1,
1,0.27597,2,1,2,1.0416,1,1,0.15072,0,1,
1,0.30036,2,1,2,1.7593,1,1,0.15896,0,1,
1,0.27348,2,1,2,1.3249,1,1,0.15912,0,1,
1,0.31479,2,2,1,1.5218,1,2,0.34538,0,1,
1,0.5038,2,2,1,1.9519,1,1,0.11989,0,1,
1,0.36387,2,1,2,1.669,1,1,0.16208,0,1,
1,0.36588,2,2,1,1.4731,1,1,0.12006,0,1,
1,0.36073,2,2,1,1.6494,1,2,0.35671,0,1,
1,0.28286,2,1,2,1.6656,1,2,0.46818,0,1,
1,0.41035,2,2,1,1.2301,1,1,0.12635,0,1,
1,0.2329,2,1,2,1.8049,1,2,0.47645,0,1,
1,0.43445,2,2,1,1.5028,1,1,0.12178,0,1,
1,0.50619,2,2,2,1.434,0,2,0.4739,0,1,
1,0.53761,2,1,2,1.709,1,2,0.47379,0,1,
1,0.52684,2,2,1,1.5553,1,2,0.36144,0,1,
1,0.35366,2,1,2,1.255,1,1,0.15996,0,1,
1,0.47659,2,2,1,1.0752,1,1,0.12117,0,1,
1,0.3595,2,1,2,1.5891,1,2,0.4853,0,1,
1,0.42052,2,1,2,1.6742,1,1,0.15899,0,1,
1,0.49875,2,2,1,1.588,1,2,0.34869,0,1,
1,0.32687,2,1,2,1.5337,1,1,0.14906,0,1,
1,0.40118,2,2,1,1.4726,1,1,0.11616,0,1,
1,0.58116,2,2,1,1.3238,1,1,0.12172,0,1,
1,0.37336,2,2,1,1.431,1,1,0.11521,0,1,
1,0.31396,2,1,1,1.7649,0,1,0.12081,0,1,
1,1.048,2,1,1,1.3928,1,1,0.12498,1,0,
1,0.34322,2,1,1,1.1546,1,2,0.36658,1,0,
1,0.27617,2,1,1,1.8323,1,2,0.37026,1,0,
1,0.29073,2,1,1,1.1498,1,2,0.36943,1,0,
1,0.45569,2,2,2,1.6795,1,1,0.15783,1,0,
1,0.4508,2,1,1,1.7501,1,1,0.12678,1,0,
1,0.40135,2,2,2,1.0149,1,2,0.46978,1,0,
1,0.42,2,2,2,1.1422,1,2,0.4412,1,0,
1,0.33961,2,2,2,1.0307,1,2,0.47237,1,0,
1,0.32596,2,2,2,1.8087,1,1,0.1527,1,0,
1,0.38445,2,1,1,1.0471,1,2,0.36969,1,0,
1,0.40016,2,2,2,1.6662,1,1,0.15629,1,0,
1,0.34141,2,2,2,1.456,1,2,0.47045,1,0,
1,0.30988,2,2,2,1.803,1,2,0.43807,1,0,
1,0.30319,2,2,1,1.3584,0,2,0.35236,1,0,
1,0.59823,2,2,2,1.0253,1,2,0.44361,1,0,
1,0.45831,2,2,2,1.2186,1,1,0.1614,1,0,
1,0.28037,2,1,1,1.7109,1,2,0.36438,1,0,
1,0.34194,2,2,2,1.5489,1,2,0.47018,1,0,
1,0.31673,2,1,1,1.8697,1,1,0.12361,1,0,
1,0.25239,2,1,1,1.7388,1,1,0.11554,1,0,
1,0.33463,2,1,1,1.1032,1,1,0.11747,1,0,
1,0.37793,2,1,1,1.9714,1,2,0.35481,1,0,
1,0.46955,2,2,2,1.7387,1,1,0.16113,1,0,
1,0.41714,2,2,2,1.0139,1,1,0.14891,1,0,
1,0.39379,2,1,1,1.6791,1,1,0.11779,1,0,
1,0.27655,2,1,1,1.4855,1,2,0.3712,1,0,
1,0.32045,2,1,1,1.0347,1,1,0.12334,1,0,
1,0.22208,2,1,2,1.1144,0,2,0.47183,1,0,
1,0.82933,2,2,2,1.0766,1,2,0.47913,1,0,
1,0.38142,2,2,2,1.6078,1,2,0.47311,1,0,
1,0.26568,2,2,2,1.2335,1,2,0.43608,1,0,
1,0.296,2,2,2,1.142,1,1,0.15512,1,0,
1,0.2754,2,1,1,1.5302,1,1,0.12727,1,0,
1,0.29427,2,1,1,1.9303,1,1,0.11568,1,0,
1,0.26949,2,1,1,1.6169,1,2,0.36603,1,0,
1,0.22526,2,1,1,1.6899,1,2,0.38224,1,0,
1,0.36908,2,2,2,1.2344,1,1,0.14841,1,0,
1,0.28982,2,2,2,1.2068,1,1,0.15408,1,0,
1,0.36966,2,2,2,1.0374,1,1,0.14717,1,0,
1,0.4579,2,1,1,1.6634,1,2,0.37431,1,0,
1,0.35541,2,2,2,1.5073,1,2,0.45116,1,0,
1,0.29906,2,1,1,1.4858,1,1,0.11696,1,0,
1,0.37432,2,1,1,1.8617,1,2,0.38442,1,0,
1,0.24749,2,1,1,1.9655,1,2,0.37276,1,0,
1,0.26033,2,1,2,1.7597,0,1,0.1595,1,0,
1,0.33295,2,2,2,1.2467,1,2,0.47072,1,0,
1,0.78465,2,1,1,1.6763,1,1,0.12392,1,0,
1,0.61556,2,1,2,1.7593,0,1,0.15418,1,0,
1,0.68178,2,2,2,1.5862,1,1,0.14822,1,0,
1,0.46921,2,2,2,1.8224,1,2,0.46052,1,0,
1,0.33476,2,2,2,1.9268,1,1,0.15469,1,0,
1,0.28495,2,1,1,1.6376,1,1,0.12592,1,0,
1,0.33227,2,2,2,1.0189,1,2,0.44539,1,0,
1,0.24231,2,1,1,1.1843,1,1,0.12163,1,0,
1,0.36976,2,2,2,1.0267,1,2,0.47752,1,0,
1,0.31241,2,1,1,1.935,1,1,0.11924,1,0,
1,0.3291,2,2,1,1.4845,0,1,0.12192,1,0,
1,0.29923,2,2,2,1.7948,1,2,0.47257,1,0,
1,0.28746,2,2,2,1.4568,1,1,0.14846,1,0,
1,0.26619,2,2,1,1.4942,0,2,0.36981,1,0,
1,0.36519,2,2,2,1.4257,1,1,0.14504,1,0,
1,0.42069,2,2,2,1.8918,1,1,0.15386,1,0,
1,0.3595,2,2,2,1.8743,1,2,0.46461,1,0,
1,0.25602,2,1,1,1.6332,1,2,0.34367,1,0,
1,0.36101,2,2,2,1.2923,1,2,0.48219,1,0,
1,0.25242,2,1,1,1.2917,1,2,0.37796,1,0,
1,0.57897,2,1,2,1.2455,0,2,0.47573,1,0,
1,0.62398,2,2,2,1.7043,1,2,0.47644,1,0,
1,0.38175,2,2,2,1.7746,1,1,0.15141,1,0,
1,0.44516,2,1,1,1.8227,1,1,0.11649,1,0,
1,0.38686,2,2,2,1.8062,1,1,0.15104,1,0,
1,0.37873,2,2,2,1.2538,1,1,0.15622,1,0,
1,0.36067,2,1,1,1.8005,1,2,0.38229,1,0,
1,0.30104,2,1,1,1.6297,1,1,0.1157,1,0,
1,0.3773,2,2,2,1.2315,1,2,0.47374,1,0,
1,0.36549,2,2,2,1.3811,1,1,0.14596,1,0,
1,0.34736,2,2,2,1.4532,1,2,0.47474,1,0,
1,0.38221,2,2,2,1.5006,1,1,0.15299,1,0,
1,0.25177,2,1,1,1.5406,1,2,0.34518,1,0,
1,0.28075,2,1,1,1.3451,1,2,0.37835,1,0,
1,0.32894,2,1,1,1.2914,1,1,0.11666,1,0,
1,0.25078,2,1,1,1.7035,1,2,0.34797,1,0,
1,0.23953,2,1,1,1.9341,1,2,0.3543,1,0,
1,0.23768,2,1,2,1.5942,0,2,0.45115,1,0,
1,0.39147,2,1,1,1.5931,1,1,0.12274,1,0,
1,0.27603,2,2,2,1.7387,1,1,0.1568,1,0,
1,0.3843,2,1,1,1.3726,1,1,0.12825,1,0,
1,0.3532,2,1,1,1.4533,1,1,0.12833,1,0,
1,0.35843,2,1,1,1.5094,1,2,0.37469,1,0,
1,0.3063,2,2,2,1.9287,1,1,0.1497,1,0,
1,0.47435,2,2,2,1.4508,1,1,0.16187,1,0,
1,0.29006,2,1,1,1.6374,1,1,0.12001,1,0,
1,0.34664,2,1,1,1.4594,1,1,0.11735,1,0,
1,0.54635,2,2,2,1.5538,1,2,0.46779,1,0,
1,0.5142,2,1,1,1.0412,1,1,0.11466,1,0,
1,0.37066,2,2,1,1.8022,0,2,0.34511,1,0,
1,0.3305,2,1,1,1.6715,1,2,0.35059,1,0,
1,0.29626,2,1,1,1.2003,1,2,0.35141,1,0,
1,0.40508,2,1,1,1.0146,1,1,0.12435,1,0,
1,0.48669,2,1,2,1.8053,1,1,0.15618,1,1,
1,0.33797,2,2,1,1.269,1,2,0.3543,1,1,
1,0.44669,2,1,2,1.434,1,1,0.14683,1,1,
1,0.38046,2,1,2,1.4018,1,2,0.43815,1,1,
1,0.40682,2,1,2,1.6081,1,2,0.4674,1,1,
1,0.35967,2,1,2,1.7701,1,1,0.15719,1,1,
1,0.48402,2,2,1,1.9411,1,2,0.35444,1,1,
1,0.35056,2,2,1,1.1315,1,1,0.12016,1,1,
1,0.31536,2,2,1,1.2557,1,2,0.35816,1,1,
1,0.49482,2,1,2,1.3783,1,1,0.14641,1,1,
1,0.3471,2,1,2,1.9937,1,1,0.14621,1,1,
1,0.32585,2,1,2,1.341,1,2,0.44121,1,1,
1,0.33876,2,2,1,1.8996,1,2,0.37126,1,1,
1,0.36773,2,1,2,1.2375,1,1,0.14874,1,1,
1,0.3351,2,2,1,1.22,1,2,0.3529,1,1,
1,0.46028,2,2,1,1.9911,1,2,0.34373,1,1,
1,0.37181,2,2,1,1.9511,1,1,0.12446,1,1,
1,0.38929,2,1,2,1.6382,1,2,0.46414,1,1,
1,0.44548,2,1,2,1.5041,1,1,0.15455,1,1,
1,0.37464,2,1,2,1.3581,1,1,0.15798,1,1,
1,0.34131,2,2,1,1.7685,1,2,0.37759,1,1,
1,0.27654,2,2,1,1.7844,1,2,0.3593,1,1,
1,0.44521,2,1,2,1.0289,1,2,0.44197,1,1,
1,0.34966,2,1,2,1.0524,1,1,0.14834,1,1,
1,0.31724,2,1,2,1.3234,1,2,0.47273,1,1,
1,0.27871,2,1,1,1.7997,0,2,0.37091,1,1,
1,0.30453,2,2,1,1.6302,1,2,0.34577,1,1,
1,0.23081,2,1,2,1.9828,1,2,0.45479,1,1,
1,0.46579,2,1,2,1.1582,1,1,0.15348,1,1,
1,0.34972,2,2,1,1.6167,1,1,0.12513,1,1,
1,0.3275,2,1,2,1.3087,1,2,0.44258,1,1,
1,0.30847,2,2,1,1.0851,1,1,0.12104,1,1,
1,0.3995,2,1,2,1.8768,1,1,0.14624,1,1,
1,0.35698,2,1,2,1.5907,1,2,0.4764,1,1,
1,0.32688,2,1,2,1.3031,1,2,0.45529,1,1,
1,0.30548,2,1,2,1.1681,1,2,0.4471,1,1,
1,0.33453,2,1,2,1.3399,1,2,0.43916,1,1,
1,0.34154,2,1,1,1.0674,0,1,0.11551,1,1,
1,0.40493,2,1,2,1.6535,1,1,0.16138,1,1,
1,0.26376,2,2,1,1.2443,1,1,0.11719,1,1,
1,0.65672,2,1,2,1.7579,1,2,0.48577,1,1,
1,0.29673,2,2,1,1.299,1,2,0.35709,1,1,
1,0.34289,2,1,2,1.4188,1,1,0.16199,1,1,
1,0.33977,2,2,1,1.0558,1,1,0.11908,1,1,
1,0.29884,2,1,2,1.0309,1,2,0.4383,1,1,
1,0.29867,2,1,2,1.1866,1,1,0.15563,1,1,
1,0.27073,2,1,2,1.2709,1,1,0.15462,1,1,
1,0.27615,2,1,1,1.0662,0,2,0.38117,1,1,
1,0.40056,2,2,1,1.3335,1,2,0.35144,1,1,
1,0.57299,2,2,1,1.0499,1,1,0.12533,1,1,
1,0.34468,2,2,1,1.1013,1,1,0.11914,1,1,
1,0.3232,2,2,1,1.0719,1,1,0.12802,1,1,
1,0.50671,2,2,1,1.9045,1,1,0.12603,1,1,
1,0.41589,2,2,1,1.3118,1,1,0.12424,1,1,
1,0.38081,2,2,1,1.5918,1,1,0.11733,1,1,
1,0.46446,2,1,2,1.3776,1,1,0.14529,1,1,
1,0.45163,2,2,1,1.9516,1,2,0.3518,1,1,
1,0.50616,2,1,2,1.7424,1,2,0.46283,1,1,
1,0.41574,2,1,2,1.8871,1,2,0.44058,1,1,
1,0.3883,2,2,1,1.5989,1,1,0.12629,1,1,
1,0.30694,2,1,1,1.6896,0,2,0.38136,1,1,
1,0.43675,2,1,2,1.3911,1,2,0.45215,1,1,
1,0.36065,2,2,1,1.2233,1,2,0.36245,1,1,
1,0.46564,2,2,1,1.1313,1,1,0.1145,1,1,
1,0.29004,2,1,2,1.1725,1,2,0.45097,1,1,
1,0.43528,2,1,2,1.9386,1,1,0.15337,1,1,
1,0.38569,2,2,1,1.0345,1,2,0.35392,1,1,
1,0.33656,2,2,1,1.8796,1,2,0.37149,1,1,
1,0.52958,2,1,2,1.5223,1,1,0.16108,1,1,
1,0.31896,2,2,1,1.8082,1,2,0.3667,1,1,
1,0.50651,2,1,2,1.4476,1,2,0.4486,1,1,
1,0.23593,2,1,1,1.3465,0,2,0.38213,1,1,
1,0.40549,2,2,1,1.7572,1,1,0.11531,1,1,
1,0.42774,2,2,1,1.3602,1,1,0.12302,1,1,
1,0.34623,2,1,2,1.5566,1,1,0.16177,1,1,
1,0.29547,2,2,1,1.8887,1,1,0.12148,1,1,
1,0.26703,2,1,2,1.8402,1,2,0.48577,1,1,
1,0.27013,2,2,1,1.244,1,1,0.11811,1,1,
1,0.25406,2,1,2,1.4356,1,1,0.15411,1,1,
1,0.26832,2,2,1,1.8286,1,1,0.12712,1,1,
1,0.30642,2,1,2,1.1527,1,1,0.14867,1,1,
1,0.28963,2,2,1,1.758,1,1,0.1259,1,1,
1,0.46594,2,2,1,1.8765,1,2,0.34891,1,1,
1,0.45786,2,2,1,1.5021,1,1,0.12038,1,1,
1,0.30776,2,1,2,1.5703,1,1,0.16041,1,1,
1,0.37455,2,1,2,1.8515,1,2,0.47186,1,1,
1,0.37969,2,2,1,1.9846,1,2,0.36362,1,1,
1,0.35997,2,1,2,1.7902,1,1,0.15558,1,1,
1,0.41454,2,2,1,1.3507,1,1,0.11549,1,1,
1,0.36174,2,1,2,1.5019,1,2,0.44737,1,1,
1,0.34961,2,2,1,1.2552,1,2,0.34441,1,1,
1,0.35065,2,1,2,1.5099,1,2,0.47965,1,1,
1,0.29362,2,1,2,1.0786,1,2,0.43585,1,1,
1,0.35957,2,1,2,1.0559,1,1,0.15452,1,1,
1,0.34938,2,2,1,1.635,1,1,0.11605,1,1,
1,0.3281,2,1,1,1.6169,0,2,0.36744,1,1,
1,0.51238,2,2,1,1.0815,1,2,0.36889,1,1,
1,0.33294,2,1,2,1.6095,1,1,0.15806,1,1,
1,0.29881,2,1,2,1.5447,1,2,0.45092,1,1,
1,0.45024,2,2,1,1.8559,1,1,0.1272,1,1,
2,0.47177,2,2,2,1.1465,1,1,0.19968,0,0,
2,0.44325,2,2,2,1.6311,1,2,0.57566,0,0,
2,0.4438,2,2,2,1.8593,1,1,0.20962,0,0,
2,0.43228,2,1,1,1.9742,1,1,0.15537,0,0,
2,0.35657,2,1,1,1.5708,1,1,0.15271,0,0,
2,0.33404,2,2,2,1.9969,1,1,0.2097,0,0,
2,0.41321,2,2,2,1.5535,1,2,0.60871,0,0,
2,0.33035,2,2,2,1.5155,1,2,0.59458,0,0,
2,0.34567,2,2,2,1.3307,1,1,0.20724,0,0,
2,0.35312,2,2,2,1.43,1,2,0.60013,0,0,
2,0.30691,2,2,2,1.4918,1,2,0.6016,0,0,
2,0.35495,2,1,1,1.071,1,2,0.47094,0,0,
2,0.30427,2,1,1,1.8877,1,2,0.45428,0,0,
2,0.3984,2,1,1,1.0646,1,2,0.44764,0,0,
2,0.3181,2,1,1,1.4362,1,2,0.46549,0,0,
2,0.3188,2,2,2,1.8266,1,1,0.20789,0,0,
2,0.32161,2,2,2,1.3945,1,2,0.5915,0,0,
2,0.33596,2,2,2,1.6135,1,1,0.1906,0,0,
2,0.29576,2,1,1,1.8186,1,2,0.45831,0,0,
2,0.29154,2,1,1,1.8862,1,1,0.15026,0,0,
2,0.3141,2,1,1,1.9311,1,1,0.15202,0,0,
2,0.35233,2,2,2,1.1908,1,2,0.62128,0,0,
2,0.35843,2,2,2,1.2586,1,1,0.1971,0,0,
2,0.25875,2,1,1,1.8979,1,2,0.45548,0,0,
2,0.3301,2,2,2,1.5934,1,2,0.58835,0,0,
2,0.33002,2,2,2,1.5038,1,1,0.19121,0,0,
2,0.34632,2,2,2,1.6128,1,1,0.19387,0,0,
2,0.3616,2,1,1,1.8194,1,1,0.14662,0,0,
2,0.30106,2,2,2,1.5319,1,2,0.59304,0,0,
2,0.34661,2,1,1,1.2021,1,1,0.14952,0,0,
2,0.25891,2,2,2,1.4539,1,2,0.58411,0,0,
2,0.30044,2,1,1,1.4279,1,1,0.15244,0,0,
2,0.27285,2,2,2,1.9661,1,1,0.19075,0,0,
2,0.33598,2,2,2,1.6201,1,1,0.19918,0,0,
2,0.28983,2,1,1,1.6954,1,2,0.47237,0,0,
2,0.28385,2,2,2,1.7202,1,2,0.58049,0,0,
2,0.34124,2,1,1,1.3469,1,2,0.47667,0,0,
2,NaN,2,0,2,1.517,NaN,1,0.18976,0,0,
2,0.3567,2,1,1,1.5567,1,2,0.45568,0,0,
2,0.39041,2,2,2,1.1565,1,1,0.18822,0,0,
2,0.32808,2,1,1,1.5621,1,1,0.14889,0,0,
2,0.27961,2,2,2,1.6948,1,2,0.56452,0,0,
2,0.37002,2,2,2,1.4265,1,1,0.19229,0,0,
2,0.36814,2,2,2,1.8363,1,1,0.19126,0,0,
2,0.35715,2,2,2,1.7314,1,1,0.19404,0,0,
2,0.29492,2,1,1,1.36,1,1,0.14811,0,0,
2,0.23055,2,1,1,1.4542,1,2,0.44248,0,0,
2,0.3181,2,2,2,1.3864,1,1,0.20158,0,0,
2,0.31835,2,1,1,1.7756,1,2,0.48308,0,0,
2,0.33448,2,2,2,1.7343,1,1,0.20964,0,0,
2,0.27229,2,1,1,1.4303,1,2,0.44671,0,0,
2,0.34372,2,2,2,1.6938,1,1,0.1989,0,0,
2,0.28427,2,1,1,1.9452,1,1,0.15158,0,0,
2,0.26137,2,1,1,1.7842,1,2,0.46254,0,0,
2,0.31079,2,2,2,1.7056,1,2,0.58192,0,0,
2,0.29724,2,1,1,1.1093,1,2,0.43892,0,0,
2,0.38467,2,1,1,1.3899,1,1,0.15264,0,0,
2,0.2919,2,2,2,1.5909,1,2,0.57585,0,0,
2,0.29227,2,2,2,1.4594,1,2,0.56614,0,0,
2,0.31004,2,1,1,1.0503,1,2,0.48607,0,0,
2,0.27769,2,1,1,1.2287,1,1,0.15254,0,0,
2,0.23713,2,1,1,1.8342,1,2,0.48645,0,0,
2,0.40451,2,2,2,1.0156,1,1,0.20541,0,0,
2,0.36297,2,2,2,1.8637,1,2,0.56492,0,0,
2,0.27541,2,1,1,1.0781,1,1,0.15698,0,0,
2,0.31107,2,1,1,1.669,1,2,0.47235,0,0,
2,0.30747,2,1,1,1.5002,1,1,0.15635,0,0,
2,0.35542,2,1,1,1.218,1,1,0.15469,0,0,
2,0.30842,2,1,1,1.5716,1,2,0.44655,0,0,
2,0.33033,2,1,1,1.1222,1,1,0.15866,0,0,
2,0.29506,2,2,2,1.6712,1,2,0.57945,0,0,
2,0.30358,2,1,1,1.5996,1,2,0.45447,0,0,
2,0.32022,2,1,1,1.056,1,1,0.16084,0,0,
2,0.30032,2,1,1,1.0563,1,2,0.4806,0,0,
2,0.3365,2,2,2,1.1525,1,1,0.19707,0,0,
2,0.32806,2,1,1,1.0196,1,1,0.15057,0,0,
2,0.32248,2,1,1,1.4352,1,1,0.15569,0,0,
2,0.25966,2,2,2,1.8322,1,2,0.6268,0,0,
2,0.29677,2,2,2,1.6174,1,2,0.62672,0,0,
2,0.25445,2,1,1,1.5201,1,2,0.46617,0,0,
2,0.26761,2,2,2,1.8639,1,2,0.58647,0,0,
2,0.37532,2,1,1,1.0977,1,1,0.16014,0,0,
2,0.33276,2,1,1,1.9081,1,2,0.45823,0,0,
2,0.45371,2,2,2,1.108,1,2,0.62637,0,0,
2,0.30814,2,2,2,1.517,1,1,0.18887,0,0,
2,0.29102,2,2,2,1.1432,1,2,0.60012,0,0,
2,0.24512,2,1,1,1.5594,1,1,0.15764,0,0,
2,0.43328,2,2,2,1.0046,1,1,0.19207,0,0,
2,0.23541,2,1,1,1.7667,1,2,0.45268,0,0,
2,0.29724,2,1,1,1.8487,1,2,0.44499,0,0,
2,0.30117,2,2,2,1.9168,1,2,0.58575,0,0,
2,0.33036,2,1,1,1.987,1,1,0.15207,0,0,
2,0.40633,2,1,1,1.5051,1,1,0.15462,0,0,
2,0.3652,2,1,1,1.2714,1,1,0.14598,0,0,
2,0.36977,2,2,2,1.1008,1,2,0.60152,0,0,
2,0.27364,2,1,1,1.5078,1,2,0.44947,0,0,
2,0.33735,2,2,2,1.5856,1,1,0.19345,0,0,
2,0.28084,2,2,2,1.7629,1,2,0.58046,0,0,
2,0.39489,2,1,1,1.083,1,1,0.14776,0,0,
2,0.30242,2,2,2,1.6616,1,1,0.21005,0,0,
2,NaN,2,0,1,1.3209,NaN,2,0.4644,0,1,
2,0.70721,2,1,2,1.5114,1,1,0.20527,0,1,
2,0.41891,2,1,2,1.0606,1,2,0.63298,0,1,
2,0.32001,2,1,2,1.7257,1,2,0.63058,0,1,
2,0.30465,2,1,2,1.5566,1,2,0.6003,0,1,
2,0.33499,2,1,2,1.5294,1,1,0.21023,0,1,
2,0.58908,2,1,2,1.83,1,1,0.19067,0,1,
2,0.44847,2,1,2,1.8588,1,2,0.56779,0,1,
2,0.36401,2,2,1,1.789,1,1,0.15033,0,1,
2,0.38249,2,1,2,1.3178,1,1,0.20114,0,1,
2,0.29857,2,2,1,1.4522,1,2,0.46293,0,1,
2,0.32537,2,2,1,1.7522,1,1,0.16103,0,1,
2,0.303,2,1,2,1.1099,1,2,0.60068,0,1,
2,0.40908,2,1,2,1.1097,1,2,0.59322,0,1,
2,0.27202,2,1,2,1.2699,1,2,0.60083,0,1,
2,0.29001,2,2,1,1.5246,1,1,0.15757,0,1,
