"subjIndx","trial_RT","trial_blockType","trial_response","trial_limbside","trial_randSOA","trial_correct","trial_int","trial_actualIntensity","trial_crossed_legs","trial_crossed_hand",
32,0.52093,2,2,2,1.1465,1,1,0.090538,1,0,
32,0.40184,2,2,2,1.6311,1,2,0.26101,1,0,
32,0.31932,2,2,2,1.8593,1,1,0.095041,1,0,
32,0.56256,2,1,1,1.9742,1,1,0.15425,1,0,
32,0.34772,2,1,1,1.5708,1,1,0.15161,1,0,
32,0.48449,2,2,2,1.9969,1,1,0.095078,1,0,
32,0.41467,2,2,2,1.5535,1,2,0.276,1,0,
32,0.44076,2,2,2,1.5155,1,2,0.26959,1,0,
32,0.30341,2,2,2,1.3307,1,1,0.093966,1,0,
32,0.34302,2,2,2,1.43,1,2,0.27211,1,0,
32,0.24665,2,2,2,1.4918,1,2,0.27277,1,0,
32,0.46975,2,1,1,1.071,1,2,0.46755,1,0,
32,0.42715,2,1,1,1.8877,1,2,0.451,1,0,
32,0.59407,2,1,1,1.0646,1,2,0.44441,1,0,
32,0.31579,2,1,1,1.4362,1,2,0.46213,1,0,
32,0.44624,2,2,2,1.8266,1,1,0.09426,1,0,
32,0.32869,2,1,2,1.3945,0,2,0.26819,1,0,
32,0.50144,2,2,2,1.6135,1,1,0.08642,1,0,
32,0.41496,2,1,1,1.8186,1,2,0.455,1,0,
32,0.3583,2,2,1,1.8862,0,1,0.14918,1,0,
32,0.76484,2,1,1,1.9311,1,1,0.15093,1,0,
32,0.65037,2,2,2,1.1908,1,2,0.28169,1,0,
32,0.44659,2,1,2,1.2586,0,1,0.089365,1,0,
32,0.27547,2,2,1,1.8979,0,2,0.4522,1,0,
32,0.52366,2,2,2,1.5934,1,2,0.26676,1,0,
32,0.50199,2,2,2,1.5038,1,1,0.086696,1,0,
32,0.80751,2,2,2,1.6128,1,1,0.0879,1,0,
32,0.52605,2,1,1,1.8194,1,1,0.14556,1,0,
32,0.42453,2,2,2,1.5319,1,2,0.26889,1,0,
32,0.34042,2,1,1,1.2021,1,1,0.14844,1,0,
32,0.27938,2,2,2,1.4539,1,2,0.26484,1,0,
32,0.38922,2,1,1,1.4279,1,1,0.15134,1,0,
32,0.76237,2,2,2,1.9661,1,1,0.086486,1,0,
32,0.42791,2,2,2,1.6201,1,1,0.09031,1,0,
32,0.36455,2,1,1,1.6954,1,2,0.46897,1,0,
32,0.33495,2,2,2,1.7202,1,2,0.2632,1,0,
32,0.40223,2,1,1,1.3469,1,2,0.47323,1,0,
32,0.32546,2,2,2,1.517,1,1,0.086038,1,0,
32,0.30435,2,1,1,1.5567,1,2,0.45239,1,0,
32,0.46215,2,2,2,1.1565,1,1,0.08534,1,0,
32,0.38151,2,1,1,1.5621,1,1,0.14782,1,0,
32,0.31905,2,2,2,1.6948,1,2,0.25596,1,0,
32,0.65861,2,1,2,1.4265,0,1,0.087185,1,0,
32,0.38155,2,2,2,1.8363,1,1,0.086718,1,0,
32,0.3368,2,2,2,1.7314,1,1,0.087981,1,0,
32,0.86623,2,1,1,1.36,1,1,0.14704,1,0,
32,0.50424,2,1,1,1.4542,1,2,0.43929,1,0,
32,1.2271,2,2,2,1.3864,1,1,0.091396,1,0,
32,0.48429,2,1,1,1.7756,1,2,0.47959,1,0,
32,0.34583,2,2,2,1.7343,1,1,0.09505,1,0,
32,0.39729,2,1,1,1.4303,1,2,0.44349,1,0,
32,0.69373,2,2,2,1.6938,1,1,0.090182,1,0,
32,0.43034,2,1,1,1.9452,1,1,0.15049,1,0,
32,0.89137,2,1,1,1.7842,1,2,0.45921,1,0,
32,0.41607,2,2,2,1.7056,1,2,0.26385,1,0,
32,0.52392,2,1,1,1.1093,1,2,0.43575,1,0,
32,0.44344,2,1,1,1.3899,1,1,0.15154,1,0,
32,0.6149,2,2,2,1.5909,1,2,0.26109,1,0,
32,0.74036,2,2,2,1.4594,1,2,0.25669,1,0,
32,0.64755,2,2,1,1.0503,0,2,0.48256,1,0,
32,0.57289,2,1,1,1.2287,1,1,0.15144,1,0,
32,0.50517,2,1,1,1.8342,1,2,0.48295,1,0,
32,0.41399,2,2,2,1.0156,1,1,0.093133,1,0,
32,0.41523,2,2,2,1.8637,1,2,0.25614,1,0,
32,0.99087,2,1,1,1.0781,1,1,0.15585,1,0,
32,0.55891,2,1,1,1.669,1,2,0.46894,1,0,
32,0.61368,2,1,1,1.5002,1,1,0.15522,1,0,
32,0.48514,2,1,1,1.218,1,1,0.15357,1,0,
32,0.44968,2,1,1,1.5716,1,2,0.44333,1,0,
32,0.44816,2,1,1,1.1222,1,1,0.15751,1,0,
32,0.6145,2,2,2,1.6712,1,2,0.26273,1,0,
32,0.33609,2,1,1,1.5996,1,2,0.45119,1,0,
32,0.42452,2,2,1,1.056,0,1,0.15968,1,0,
32,0.46587,2,1,1,1.0563,1,2,0.47713,1,0,
32,0.40206,2,2,2,1.1525,1,1,0.089352,1,0,
32,0.38272,2,1,1,1.0196,1,1,0.14949,1,0,
32,0.78678,2,1,1,1.4352,1,1,0.15457,1,0,
32,0.4477,2,2,2,1.8322,1,2,0.28419,1,0,
32,0.49933,2,2,2,1.6174,1,2,0.28416,1,0,
32,0.5387,2,1,1,1.5201,1,2,0.46281,1,0,
32,0.37835,2,2,2,1.8639,1,2,0.26591,1,0,
32,0.54005,2,1,1,1.0977,1,1,0.15898,1,0,
32,0.56414,2,1,1,1.9081,1,2,0.45493,1,0,
32,0.45097,2,2,2,1.108,1,2,0.284,1,0,
32,0.54036,2,1,2,1.517,0,1,0.085633,1,0,
32,0.55707,2,2,2,1.1432,1,2,0.2721,1,0,
32,0.46296,2,1,1,1.5594,1,1,0.1565,1,0,
32,0.55861,2,2,2,1.0046,1,1,0.087086,1,0,
32,0.4765,2,1,1,1.7667,1,2,0.44941,1,0,
32,0.54951,2,1,1,1.8487,1,2,0.44178,1,0,
32,0.4962,2,2,2,1.9168,1,2,0.26558,1,0,
32,0.43617,2,1,1,1.987,1,1,0.15097,1,0,
32,0.49643,2,1,1,1.5051,1,1,0.15351,1,0,
32,0.48931,2,1,1,1.2714,1,1,0.14492,1,0,
32,0.46519,2,2,2,1.1008,1,2,0.27274,1,0,
32,0.43168,2,1,1,1.5078,1,2,0.44623,1,0,
32,0.57626,2,2,2,1.5856,1,1,0.087712,1,0,
32,0.76241,2,2,2,1.7629,1,2,0.26319,1,0,
32,0.46621,2,1,1,1.083,1,1,0.14669,1,0,
32,1.0291,2,2,2,1.6616,1,1,0.095237,1,0,
32,0.5471,2,2,1,1.3209,1,2,0.46105,1,1,
32,0.81405,2,2,2,1.5114,0,1,0.093071,1,1,
32,0.49127,2,1,2,1.0606,1,2,0.287,1,1,
32,0.35023,2,1,2,1.7257,1,2,0.28591,1,1,
32,0.3026,2,1,2,1.5566,1,2,0.27218,1,1,
32,0.2995,2,1,2,1.5294,1,1,0.095319,1,1,
32,0.34356,2,1,2,1.83,1,1,0.08645,1,1,
32,0.26985,2,1,2,1.8588,1,2,0.25744,1,1,
32,0.7129,2,2,1,1.789,1,1,0.14925,1,1,
32,0.38533,2,1,2,1.3178,1,1,0.0912,1,1,
32,0.36537,2,2,1,1.4522,1,2,0.45959,1,1,
32,0.55997,2,2,1,1.7522,1,1,0.15987,1,1,
32,0.44794,2,1,2,1.1099,1,2,0.27235,1,1,
32,0.46385,2,1,2,1.1097,1,2,0.26897,1,1,
32,0.39434,2,1,2,1.2699,1,2,0.27242,1,1,
32,0.86494,2,2,1,1.5246,1,1,0.15643,1,1,
32,0.9801,2,1,2,1.9727,1,2,0.25641,1,1,
32,0.41352,2,1,2,1.7104,1,2,0.28064,1,1,
32,0.63834,2,2,1,1.3119,1,2,0.43949,1,1,
32,0.3964,2,1,2,1.2915,1,1,0.090138,1,1,
32,0.53252,2,1,2,1.8504,1,2,0.2636,1,1,
32,0.63086,2,2,1,1.9116,1,1,0.15037,1,1,
32,0.60642,2,2,1,1.6393,1,1,0.15552,1,1,
32,0.65388,2,2,1,1.2554,1,2,0.44086,1,1,
32,0.61013,2,2,1,1.0887,1,2,0.44644,1,1,
32,0.89053,2,1,2,1.8383,1,2,0.26183,1,1,
32,0.78472,2,1,2,1.5847,1,1,0.087244,1,1,
32,0.7467,2,2,1,1.9481,1,1,0.14964,1,1,
32,1.1231,2,1,2,1.061,1,2,0.28322,1,1,
32,0.47376,2,1,2,1.5846,1,1,0.090062,1,1,
32,0.5579,2,1,2,1.2851,1,2,0.2681,1,1,
32,0.53697,2,1,2,1.8277,1,2,0.26126,1,1,
32,0.74964,2,2,1,1.191,1,1,0.16112,1,1,
32,1.0921,2,1,2,1.4425,1,2,0.26821,1,1,
32,0.56876,2,2,1,1.3934,1,1,0.15883,1,1,
32,0.63709,2,1,2,1.8266,1,1,0.091569,1,1,
32,0.54415,2,2,1,1.6769,1,1,0.1505,1,1,
32,0.6758,2,2,1,1.2076,1,2,0.47828,1,1,
32,0.52002,2,1,1,1.3181,0,2,0.47322,1,1,
32,0.85364,2,2,1,1.1338,1,2,0.45611,1,1,
32,0.72059,2,2,1,1.6715,1,2,0.47481,1,1,
32,0.58614,2,1,2,1.571,1,1,0.094603,1,1,
32,0.95764,2,2,2,1.1698,0,1,0.089629,1,1,
32,0.75255,2,2,1,1.1477,1,2,0.4493,1,1,
32,0.59013,2,1,1,1.4761,0,1,0.15436,1,1,
32,0.67995,2,1,2,1.9081,1,2,0.28393,1,1,
32,0.46321,2,1,2,1.5522,1,2,0.27747,1,1,
32,0.78709,2,2,1,1.0329,1,1,0.15051,1,1,
32,0.48624,2,2,1,1.0539,1,2,0.47051,1,1,
32,0.52,2,1,2,1.8051,1,1,0.095212,1,1,
32,0.72916,2,2,1,1.4514,1,1,0.15341,1,1,
32,0.62849,2,2,1,1.3826,1,1,0.15336,1,1,
32,0.5883,2,2,1,1.7896,1,2,0.4481,1,1,
32,0.48425,2,2,1,1.3643,1,2,0.4359,1,1,
32,0.48229,2,2,1,1.5323,1,1,0.14716,1,1,
32,0.6082,2,2,1,1.7117,1,1,0.14566,1,1,
32,0.57701,2,1,2,1.8715,1,2,0.26995,1,1,
32,0.73887,2,2,1,1.3287,1,1,0.14427,1,1,
32,0.45052,2,1,2,1.6501,1,2,0.28435,1,1,
32,0.99546,2,1,2,1.9748,1,1,0.091859,1,1,
32,0.67277,2,2,1,1.076,1,1,0.14414,1,1,
32,0.64481,2,2,1,1.587,1,2,0.43385,1,1,
32,0.72326,2,2,1,1.4139,1,2,0.44284,1,1,
32,0.57009,2,1,2,1.3091,1,1,0.089894,1,1,
32,0.51236,2,1,2,1.2638,1,1,0.086566,1,1,
32,0.60544,2,1,2,1.7588,1,2,0.25618,1,1,
32,0.60544,2,2,1,1.9952,1,2,0.47008,1,1,
32,NaN,2,0,1,1.1866,NaN,1,0.15011,1,1,
32,0.80745,2,2,1,1.7811,1,1,0.15766,1,1,
32,0.5423,2,1,2,1.1958,1,1,0.089705,1,1,
32,0.67273,2,2,1,1.9924,1,2,0.45462,1,1,
32,1.1486,2,1,2,1.8023,1,2,0.25737,1,1,
32,0.90156,2,2,1,1.4242,1,1,0.14494,1,1,
32,0.87961,2,2,1,1.7289,1,1,0.14563,1,1,
32,0.50479,2,1,2,1.4984,1,2,0.27404,1,1,
32,0.58707,2,1,2,1.809,1,1,0.087708,1,1,
32,0.78076,2,1,2,1.3565,1,1,0.093984,1,1,
32,0.5883,2,2,1,1.0732,1,2,0.47718,1,1,
32,0.45824,2,2,1,1.591,1,2,0.48306,1,1,
32,0.51287,2,1,2,1.9102,1,1,0.090246,1,1,
32,1.4107,2,2,1,1.1938,1,2,0.44344,1,1,
32,0.38315,2,1,2,1.4324,1,2,0.26267,1,1,
32,0.36786,2,1,2,1.7492,1,1,0.090745,1,1,
32,0.54453,2,2,1,1.0392,1,1,0.15733,1,1,
32,0.32262,2,1,2,1.9463,1,1,0.08879,1,1,
32,0.50084,2,1,2,1.7637,1,1,0.089959,1,1,
32,0.42962,2,1,2,1.5588,1,1,0.091823,1,1,
32,0.40803,2,1,2,1.1838,1,2,0.28443,1,1,
32,0.66582,2,2,1,1.4979,1,2,0.44045,1,1,
32,0.54425,2,1,2,1.5178,1,1,0.092633,1,1,
32,0.51633,2,1,2,1.9942,1,2,0.27352,1,1,
32,0.44551,2,1,2,1.8549,1,1,0.08967,1,1,
32,0.68376,2,2,1,1.9624,1,1,0.15956,1,1,
32,0.60034,2,2,1,1.6789,1,1,0.15078,1,1,
32,0.40414,2,2,1,1.4035,1,1,0.14711,1,1,
32,0.53051,2,1,2,1.935,1,1,0.091759,1,1,
32,0.6647,2,2,1,1.4795,1,2,0.46454,1,1,
32,0.52092,2,2,1,1.2318,1,2,0.44897,1,1,
32,0.49218,2,2,1,1.3963,1,2,0.47421,1,1,
32,0.50255,2,2,1,1.7051,1,2,0.48506,1,1,
32,0.57784,2,1,1,1.2077,1,2,0.47979,0,0,
32,0.36969,2,2,2,1.2193,1,2,0.28335,0,0,
32,0.43436,2,2,2,1.3258,1,1,0.089729,0,0,
32,0.29796,2,1,1,1.0959,1,1,0.15768,0,0,
32,0.3288,2,1,1,1.7475,1,1,0.1466,0,0,
32,0.34247,2,2,2,1.7485,1,2,0.27485,0,0,
32,0.2889,2,1,1,1.5433,1,2,0.4455,0,0,
32,0.24331,2,2,2,1.3381,1,1,0.089798,0,0,
32,0.39689,2,2,2,1.8323,1,1,0.094012,0,0,
32,0.40117,2,2,2,1.5526,1,1,0.087256,0,0,
32,0.35234,2,2,2,1.9575,1,1,0.088344,0,0,
32,0.31962,2,1,1,1.8928,1,1,0.15236,0,0,
32,0.33289,2,2,2,1.3565,1,2,0.26607,0,0,
32,0.23884,2,1,1,1.5464,1,2,0.47396,0,0,
32,0.39872,2,2,2,1.3467,1,1,0.095578,0,0,
32,0.34178,2,1,1,1.6228,1,1,0.14677,0,0,
32,0.4154,2,2,2,1.7966,1,2,0.263,0,0,
32,0.28994,2,1,1,1.7459,1,1,0.15625,0,0,
32,0.5175,2,2,2,1.1255,1,1,0.089075,0,0,
32,0.35419,2,1,1,1.8224,1,2,0.48362,0,0,
32,0.42155,2,1,1,1.0252,1,2,0.48354,0,0,
32,0.30231,2,1,1,1.4144,1,2,0.46559,0,0,
32,0.40433,2,1,1,1.7314,1,1,0.15911,0,0,
32,0.5525,2,2,2,1.7814,1,1,0.089347,0,0,
32,0.48105,2,2,2,1.3673,1,1,0.091745,0,0,
32,0.53388,2,1,1,1.7449,1,1,0.16142,0,0,
32,0.48787,2,2,2,1.8923,1,2,0.27295,0,0,
32,0.41979,2,2,2,1.2426,1,1,0.094987,0,0,
32,0.36843,2,1,1,1.1296,1,2,0.46972,0,0,
32,0.32623,2,1,1,1.2251,1,2,0.45711,0,0,
32,0.38261,2,1,1,1.35,1,2,0.46534,0,0,
32,0.78128,2,1,1,1.2871,1,1,0.15962,0,0,
32,0.66041,2,2,2,1.9275,1,2,0.26184,0,0,
32,0.62251,2,2,2,1.0513,1,1,0.08928,0,0,
32,0.43045,2,1,1,1.5927,1,1,0.16155,0,0,
32,0.43121,2,2,2,1.1629,1,1,0.089352,0,0,
32,0.46816,2,2,2,1.8384,1,2,0.27609,0,0,
32,0.43535,2,1,1,1.1676,1,1,0.15987,0,0,
32,0.45859,2,1,1,1.5022,1,2,0.48483,0,0,
32,0.52944,2,2,2,1.9993,1,2,0.27591,0,0,
32,0.77535,2,2,2,1.3554,1,1,0.086379,0,0,
32,0.44972,2,1,1,1.0471,1,1,0.14471,0,0,
32,0.33947,2,2,2,1.2137,1,2,0.2748,0,0,
32,0.45348,2,2,2,1.3978,1,2,0.27319,0,0,
32,0.63671,2,2,2,1.3337,1,1,0.095298,0,0,
32,0.46535,2,1,1,1.2296,1,2,0.47111,0,0,
32,0.46942,2,1,1,1.9361,1,1,0.15553,0,0,
32,0.60373,2,2,2,1.6832,1,2,0.27181,0,0,
32,0.44579,2,1,1,1.9621,1,2,0.44547,0,0,
32,0.49875,2,2,2,1.438,1,1,0.095298,0,0,
32,0.48633,2,2,2,1.9403,1,2,0.27234,0,0,
32,0.53335,2,1,1,1.0058,1,1,0.14461,0,0,
32,0.31297,2,2,2,1.6103,1,2,0.27728,0,0,
32,0.26956,2,1,1,1.8011,1,2,0.45899,0,0,
32,0.39614,2,2,2,1.233,1,2,0.25767,0,0,
32,NaN,2,0,2,1.9325,NaN,1,0.094512,0,0,
32,0.3836,2,1,1,1.7633,1,1,0.1497,0,0,
32,0.6003,2,1,1,1.8264,1,1,0.14797,0,0,
32,0.43926,2,1,1,1.5735,1,2,0.43804,0,0,
32,0.32211,2,2,2,1.7926,1,2,0.26525,0,0,
32,0.30355,2,1,1,1.329,1,2,0.44386,0,0,
32,0.346,2,2,2,1.2235,1,2,0.27587,0,0,
32,1.0324,2,2,2,1.3124,1,1,0.085959,0,0,
32,0.96393,2,2,2,1.5845,1,1,0.088055,0,0,
32,0.60789,2,2,2,1.8299,1,1,0.08812,0,0,
32,0.38841,2,1,1,1.2905,1,2,0.47844,0,0,
32,0.31061,2,1,1,1.4026,1,1,0.15168,0,0,
32,0.47449,2,2,2,1.8621,1,1,0.093064,0,0,
32,0.46865,2,1,1,1.6147,1,2,0.46343,0,0,
32,0.92337,2,2,2,1.9912,1,1,0.093357,0,0,
32,0.27446,2,1,1,1.2037,1,2,0.43804,0,0,
32,0.29205,2,2,2,1.8272,1,1,0.09548,0,0,
32,0.60396,2,2,2,1.6759,1,2,0.28219,0,0,
32,0.45245,2,1,1,1.2489,1,1,0.14495,0,0,
32,0.36418,2,2,2,1.4758,1,2,0.27003,0,0,
32,0.75503,2,2,2,1.3991,1,1,0.088566,0,0,
32,0.27858,2,1,1,1.5994,1,2,0.46487,0,0,
32,0.38437,2,1,1,1.8005,1,2,0.44395,0,0,
32,0.46088,2,2,2,1.1051,1,2,0.27359,0,0,
32,0.24962,2,1,1,1.8214,1,1,0.15447,0,0,
32,0.27604,2,2,2,1.8411,1,2,0.27422,0,0,
32,0.38369,2,2,2,1.3545,1,1,0.089827,0,0,
32,0.23571,2,1,1,1.4301,1,1,0.1447,0,0,
32,0.44083,2,1,1,1.5722,1,1,0.15289,0,0,
32,0.32804,2,2,2,1.7008,1,2,0.26822,0,0,
32,0.18067,2,1,1,1.7425,1,2,0.43775,0,0,
32,0.27165,2,2,2,1.7579,1,2,0.26984,0,0,
32,0.19957,2,1,1,1.3891,1,2,0.45537,0,0,
32,0.29735,2,2,2,1.4293,1,1,0.090895,0,0,
32,0.19433,2,1,1,1.9563,1,1,0.15811,0,0,
32,0.36216,2,1,1,1.573,1,2,0.46867,0,0,
32,0.25625,2,1,1,1.8497,1,1,0.15933,0,0,
32,0.50228,2,2,2,1.2763,1,2,0.25746,0,0,
32,0.38667,2,2,2,1.6223,1,2,0.26248,0,0,
32,0.2748,2,1,1,1.5884,1,1,0.15194,0,0,
32,0.43412,2,1,1,1.9635,1,2,0.48278,0,0,
32,0.83247,2,1,1,1.0859,1,1,0.15783,0,0,
32,0.6438,2,1,1,1.5005,1,1,0.15181,0,0,
32,0.34646,2,2,2,1.5216,1,2,0.26594,0,0,
32,0.28039,2,1,1,1.0902,1,2,0.43529,0,0,
32,0.75149,2,2,1,1.6983,1,1,0.15863,0,1,
32,0.70443,2,1,1,1.0293,0,1,0.15802,0,1,
32,NaN,2,0,2,1.5279,NaN,2,0.28445,0,1,
32,0.84998,2,1,2,1.0321,1,1,0.086666,0,1,
32,0.75605,2,1,2,1.8271,1,2,0.27123,0,1,
32,0.57747,2,2,1,1.34,1,1,0.15099,0,1,
32,0.34392,2,1,2,1.8467,1,1,0.087029,0,1,
32,0.70827,2,1,2,1.2461,1,2,0.27344,0,1,
32,0.43482,2,2,1,1.5815,1,2,0.46359,0,1,
32,0.57767,2,2,1,1.9377,1,2,0.44314,0,1,
32,0.45338,2,1,1,1.0478,0,1,0.153,0,1,
32,0.85287,2,1,2,1.054,1,1,0.095597,0,1,
32,0.75595,2,2,1,1.0206,1,1,0.15247,0,1,
32,0.47385,2,1,1,1.6815,0,2,0.46834,0,1,
32,0.65782,2,1,2,1.5986,1,2,0.26833,0,1,
32,0.47306,2,1,2,1.114,1,1,0.085649,0,1,
32,0.5121,2,2,1,1.7962,1,1,0.14905,0,1,
32,0.45986,2,2,1,1.6179,1,2,0.47412,0,1,
32,0.52505,2,2,1,1.0702,1,2,0.44993,0,1,
32,0.39425,2,2,1,1.0693,1,2,0.4365,0,1,
32,0.41787,2,2,1,1.136,1,1,0.15285,0,1,
32,0.57182,2,1,2,1.7889,1,1,0.088987,0,1,
32,0.37756,2,1,2,1.0924,1,1,0.092888,0,1,
32,0.64432,2,2,1,1.2379,1,2,0.45926,0,1,
32,0.62202,2,2,1,1.2436,1,1,0.1581,0,1,
32,0.59782,2,1,2,1.1048,1,1,0.093719,0,1,
32,0.89972,2,1,2,1.8584,1,1,0.087188,0,1,
32,0.41693,2,1,2,1.6982,1,2,0.25959,0,1,
32,0.62716,2,1,2,1.7337,1,1,0.093764,0,1,
32,0.61,2,2,1,1.6505,1,1,0.15509,0,1,
32,0.66568,2,1,2,1.5163,1,2,0.2564,0,1,
32,0.45602,2,1,1,1.3264,0,2,0.47931,0,1,
32,0.84796,2,2,1,1.6618,1,1,0.15292,0,1,
32,0.82922,2,1,2,1.1176,1,2,0.27248,0,1,
32,0.71591,2,1,2,1.1478,1,2,0.27443,0,1,
32,0.56956,2,2,1,1.0198,1,2,0.47189,0,1,
32,0.62044,2,2,1,1.9643,1,2,0.47708,0,1,
32,0.84686,2,1,2,1.9704,1,2,0.26745,0,1,
32,0.48116,2,2,1,1.1239,1,2,0.43657,0,1,
32,0.35166,2,1,2,1.4674,1,1,0.092828,0,1,
32,0.66918,2,1,2,1.6567,1,2,0.26589,0,1,
32,0.4895,2,2,1,1.2902,1,1,0.15874,0,1,
32,0.42954,2,1,2,1.7545,1,1,0.089037,0,1,
32,0.58911,2,1,2,1.5581,1,1,0.093842,0,1,
32,0.6111,2,1,2,1.4278,1,1,0.087058,0,1,
32,0.44654,2,2,2,1.2672,0,1,0.086589,0,1,
32,0.46035,2,1,2,1.7537,1,2,0.2832,0,1,
32,0.74293,2,2,1,1.8984,1,1,0.14484,0,1,
32,0.40998,2,1,2,1.7284,1,2,0.27698,0,1,
32,0.46833,2,1,1,1.4068,0,2,0.47044,0,1,
32,0.43391,2,1,2,1.9383,1,1,0.08971,0,1,
32,0.51902,2,2,1,1.2554,1,2,0.45166,0,1,
32,0.3029,2,1,2,1.5332,1,1,0.095492,0,1,
32,0.5449,2,1,2,1.9548,1,2,0.26795,0,1,
32,0.90475,2,2,1,1.2677,1,1,0.1516,0,1,
32,1.1532,2,2,1,1.2501,1,2,0.44021,0,1,
32,0.69996,2,2,1,1.9277,1,2,0.44887,0,1,
32,0.79103,2,2,1,1.0686,1,1,0.14942,0,1,
32,0.90015,2,2,1,1.2994,1,2,0.47923,0,1,
32,0.47952,2,2,1,1.5916,1,1,0.14827,0,1,
32,0.50145,2,1,2,1.2033,1,2,0.26524,0,1,
32,0.62123,2,2,1,1.6359,1,2,0.45317,0,1,
32,0.60024,2,2,1,1.7984,1,2,0.46905,0,1,
32,0.51744,2,1,2,1.5017,1,2,0.26019,0,1,
32,0.46413,2,2,1,1.6508,1,2,0.47795,0,1,
32,0.75248,2,2,1,1.796,1,1,0.1455,0,1,
32,0.58562,2,2,1,1.2334,1,1,0.15198,0,1,
32,0.49089,2,1,2,1.6008,1,2,0.25682,0,1,
32,0.54459,2,2,2,1.1125,0,2,0.2791,0,1,
32,0.6856,2,1,2,1.5158,1,1,0.092467,0,1,
32,0.60831,2,2,1,1.8378,1,1,0.14771,0,1,
32,0.76061,2,1,2,1.9208,1,1,0.092253,0,1,
32,0.68523,2,1,2,1.4982,1,1,0.09096,0,1,
32,0.51401,2,1,2,1.2776,1,1,0.094085,0,1,
32,0.50389,2,1,2,1.6525,1,2,0.27292,0,1,
32,0.39594,2,1,2,1.9173,1,2,0.28392,0,1,
32,0.61333,2,1,2,1.5098,1,1,0.089528,0,1,
32,0.36805,2,1,2,1.9742,1,1,0.088898,0,1,
32,0.758,2,2,1,1.1973,1,2,0.45737,0,1,
32,0.4698,2,1,1,1.1112,0,1,0.14842,0,1,
32,NaN,2,0,1,1.2974,NaN,2,0.48115,0,1,
32,0.46853,2,1,2,1.3964,1,1,0.090017,0,1,
32,0.88468,2,1,2,1.4208,1,2,0.26352,0,1,
32,0.63446,2,2,1,1.3115,1,2,0.45434,0,1,
32,0.49872,2,2,1,1.6938,1,1,0.15625,0,1,
32,0.5778,2,1,2,1.0919,1,2,0.26805,0,1,
32,0.59624,2,1,2,1.4021,1,2,0.26134,0,1,
32,0.60301,2,2,1,1.2952,1,1,0.15904,0,1,
32,0.29684,2,1,2,1.3065,1,2,0.27373,0,1,
32,0.38218,2,1,1,1.1056,0,1,0.15045,0,1,
32,0.52849,2,1,1,1.5938,0,2,0.44351,0,1,
32,0.8269,2,1,2,1.2827,1,1,0.087485,0,1,
32,0.45336,2,2,1,1.1552,1,1,0.15304,0,1,
32,0.46711,2,1,2,1.0007,1,2,0.26902,0,1,
32,0.63851,2,1,2,1.2836,1,2,0.27872,0,1,
32,0.36054,2,2,1,1.5508,1,1,0.14529,0,1,
32,0.68544,2,2,1,1.8709,1,2,0.47664,0,1,
32,0.81231,2,2,1,1.0423,1,1,0.15585,0,1,
32,1.26,2,1,2,1.9047,1,1,0.08666,0,1,
32,0.35469,2,1,1,1.131,0,2,0.47724,0,1,
32,0.63951,2,2,2,1.0954,1,1,0.087427,1,0,
32,0.74719,2,1,1,1.0356,1,2,0.45182,1,0,
32,1.2498,2,1,1,1.8862,1,1,0.1446,1,0,
32,0.77251,2,2,2,1.2469,1,1,0.090074,1,0,
32,1.3918,2,2,2,1.0089,1,2,0.26593,1,0,
32,0.62955,2,2,2,1.8149,1,1,0.09545,1,0,
32,0.71552,2,1,1,1.1405,1,1,0.15363,1,0,
32,0.69962,2,1,1,1.8799,1,2,0.47658,1,0,
32,1.7794,2,2,2,1.0954,1,1,0.08941,1,0,
32,0.36702,2,1,2,1.3526,0,2,0.2699,1,0,
32,NaN,2,0,2,1.5934,NaN,1,0.093821,1,0,
32,0.55264,2,2,2,1.5852,1,2,0.28686,1,0,
32,0.4991,2,1,1,1.6677,1,2,0.45922,1,0,
32,1.0266,2,2,2,1.648,1,1,0.094898,1,0,
32,0.61314,2,2,2,1.4334,1,2,0.27865,1,0,
32,0.51026,2,1,1,1.1398,1,2,0.46152,1,0,
32,0.62627,2,1,1,1.7519,1,2,0.48335,1,0,
32,0.94367,2,1,1,1.2418,1,1,0.15846,1,0,
32,0.51515,2,1,1,1.6505,1,1,0.16095,1,0,
32,0.62202,2,2,2,1.8574,1,1,0.091897,1,0,
32,0.5508,2,1,1,1.0844,1,1,0.15055,1,0,
32,0.40106,2,2,2,1.9721,1,2,0.27035,1,0,
32,NaN,2,0,2,1.0315,NaN,1,0.09475,1,0,
32,0.45044,2,1,1,1.8354,1,1,0.14436,1,0,
32,1.057,2,1,1,1.8357,1,1,0.14673,1,0,
32,0.43423,2,1,1,1.0499,1,2,0.45646,1,0,
32,0.71144,2,1,1,1.5459,1,1,0.15341,1,0,
32,0.5454,2,2,2,1.9432,1,2,0.25769,1,0,
32,0.74301,2,2,2,1.3215,1,1,0.092021,1,0,
32,0.49421,2,2,2,1.8065,1,2,0.28352,1,0,
32,0.59513,2,1,1,1.6014,1,2,0.43783,1,0,
32,0.51873,2,2,2,1.7896,1,1,0.089717,1,0,
32,0.39498,2,1,1,1.7992,1,2,0.44651,1,0,
32,0.63161,2,2,2,1.0496,1,2,0.28666,1,0,
32,0.44698,2,1,1,1.2832,1,2,0.46372,1,0,
32,0.39227,2,2,2,1.6535,1,2,0.26351,1,0,
32,0.59352,2,1,1,1.4897,1,1,0.14633,1,0,
32,0.58107,2,1,1,1.9729,1,2,0.46033,1,0,
32,0.68387,2,2,2,1.7485,1,1,0.093837,1,0,
32,0.60212,2,2,2,1.5678,1,1,0.093937,1,0,
32,0.56795,2,1,1,1.299,1,1,0.15862,1,0,
32,1.6115,2,2,2,1.2561,1,1,0.087331,1,0,
32,1.3769,2,2,2,1.8866,1,2,0.27247,1,0,
32,0.60393,2,1,1,1.4468,1,1,0.15938,1,0,
32,0.57494,2,2,2,1.816,1,1,0.086504,1,0,
32,0.40955,2,1,1,1.0983,1,2,0.47713,1,0,
32,0.62054,2,2,2,1.8596,1,2,0.28385,1,0,
32,0.47818,2,1,1,1.0276,1,2,0.44332,1,0,
32,0.69374,2,1,1,1.8992,1,2,0.43618,1,0,
32,0.51168,2,2,2,1.8999,1,2,0.27028,1,0,
32,0.55659,2,2,2,1.5241,1,2,0.28175,1,0,
32,0.56143,2,1,1,1.1202,1,2,0.45634,1,0,
32,NaN,2,0,1,1.1778,NaN,1,0.15114,1,0,
32,0.67143,2,1,1,1.7061,1,1,0.1527,1,0,
32,0.54247,2,1,1,1.8314,1,2,0.43862,1,0,
32,0.65507,2,2,2,1.0348,1,2,0.25985,1,0,
32,NaN,2,0,2,1.7578,NaN,1,0.094299,1,0,
32,0.59412,2,1,1,1.9571,1,2,0.46341,1,0,
32,0.37655,2,2,2,1.3429,1,1,0.087953,1,0,
32,0.55244,2,1,2,1.6382,0,1,0.094238,1,0,
32,0.59923,2,1,1,1.343,1,1,0.14508,1,0,
32,0.58457,2,1,1,1.2165,1,2,0.45573,1,0,
32,0.50679,2,1,1,1.7862,1,1,0.15661,1,0,
32,0.65916,2,1,1,1.7231,1,1,0.14985,1,0,
32,0.59903,2,2,2,1.2788,1,2,0.26802,1,0,
32,0.70507,2,1,1,1.5824,1,1,0.15313,1,0,
32,0.46407,2,1,1,1.421,1,2,0.47922,1,0,
32,0.37113,2,1,1,1.0921,1,2,0.47287,1,0,
32,NaN,2,0,1,1.024,NaN,1,0.14527,1,0,
32,0.54467,2,2,2,1.4911,1,1,0.088089,1,0,
32,0.44296,2,1,1,1.2783,1,2,0.45164,1,0,
32,0.43354,2,2,2,1.3398,1,2,0.28271,1,0,
32,0.62911,2,2,2,1.2873,1,2,0.2686,1,0,
32,0.64781,2,2,2,1.1709,1,2,0.26309,1,0,
32,0.42333,2,2,1,1.3993,0,2,0.46313,1,0,
32,0.3294,2,1,2,1.6976,0,2,0.27044,1,0,
32,0.5085,2,1,1,1.2037,1,2,0.47945,1,0,
32,NaN,2,0,2,1.6663,NaN,1,0.094999,1,0,
32,0.626,2,2,2,1.4431,1,1,0.09373,1,0,
32,0.27474,2,1,1,1.4333,1,1,0.15637,1,0,
32,0.55452,2,1,2,1.1752,0,1,0.092928,1,0,
32,0.6521,2,2,2,1.1932,1,1,0.094617,1,0,
32,1.0397,2,2,1,1.6164,0,1,0.1452,1,0,
32,0.4199,2,1,1,1.269,1,1,0.14979,1,0,
32,0.31489,2,1,1,1.5597,1,1,0.14418,1,0,
32,0.60319,2,2,2,1.9448,1,1,0.09384,1,0,
32,0.59109,2,2,2,1.7145,1,2,0.27132,1,0,
32,0.63498,2,2,2,1.6792,1,2,0.26694,1,0,
32,NaN,2,0,1,1.9594,NaN,1,0.14792,1,0,
32,0.52425,2,1,1,1.7753,1,1,0.15326,1,0,
32,0.50818,2,2,2,1.6077,1,2,0.26459,1,0,
32,0.55341,2,2,2,1.948,1,1,0.085981,1,0,
32,0.38049,2,1,1,1.0596,1,2,0.43658,1,0,
32,1.0103,2,1,1,1.2687,1,2,0.43575,1,0,
32,0.5686,2,2,2,1.9867,1,1,0.089428,1,0,
32,0.56696,2,1,1,1.7722,1,1,0.14617,1,0,
32,0.37708,2,2,2,1.4754,1,2,0.26931,1,0,
32,0.45495,2,1,1,1.6809,1,2,0.47948,1,0,
32,0.47704,2,2,2,1.4169,1,2,0.26656,1,0,
32,0.51377,2,2,2,1.3801,1,2,0.25949,1,0,
32,1.0354,2,2,1,1.4885,1,2,0.46744,1,1,
32,1.3756,2,2,2,1.1599,0,1,0.085824,1,1,
32,1.4974,2,1,2,1.6668,1,1,0.09355,1,1,
32,0.68353,2,2,2,1.0179,0,2,0.27672,1,1,
32,NaN,2,0,2,1.1197,NaN,1,0.095123,1,1,
32,0.77677,2,1,2,1.9521,1,1,0.086211,1,1,
32,0.55189,2,2,1,1.9759,1,2,0.48,1,1,
32,0.54121,2,1,2,1.0309,1,1,0.090465,1,1,
32,1.1639,2,1,2,1.4939,1,2,0.27469,1,1,
32,0.65873,2,2,1,1.8627,1,1,0.14945,1,1,
32,0.69226,2,1,2,1.2429,1,1,0.086071,1,1,
32,0.56163,2,2,1,1.8343,1,1,0.15894,1,1,
32,0.288,2,1,1,1.8136,0,1,0.14653,1,1,
32,0.79631,2,2,1,1.629,1,1,0.15039,1,1,
32,0.36163,2,2,1,1.0022,1,1,0.15482,1,1,
32,0.61184,2,1,2,1.3797,1,1,0.095689,1,1,
32,0.57074,2,1,2,1.9044,1,2,0.27163,1,1,
32,0.69489,2,1,2,1.6804,1,2,0.28683,1,1,
32,0.70641,2,2,1,1.3788,1,2,0.44376,1,1,
32,0.45454,2,2,1,1.632,1,2,0.45261,1,1,
32,0.51937,2,2,1,1.2433,1,2,0.46843,1,1,
32,0.69466,2,2,1,1.5714,1,1,0.14519,1,1,
32,0.6043,2,2,1,1.9817,1,2,0.4712,1,1,
32,0.52334,2,2,1,1.8497,1,2,0.45377,1,1,
32,0.68568,2,1,2,1.2834,1,2,0.28098,1,1,
32,0.30621,2,1,2,1.6825,1,2,0.26735,1,1,
32,0.46041,2,1,2,1.3581,1,2,0.2655,1,1,
32,0.54609,2,2,1,1.9869,1,2,0.48431,1,1,
32,1.096,2,2,1,1.084,1,2,0.4696,1,1,
32,0.67619,2,2,1,1.2503,1,1,0.15113,1,1,
32,0.65923,2,1,2,1.8113,1,1,0.086281,1,1,
32,0.50082,2,1,2,1.0844,1,1,0.092835,1,1,
32,0.62185,2,1,2,1.5313,1,1,0.091801,1,1,
32,0.30437,2,1,2,1.8006,1,2,0.25811,1,1,
32,0.34956,2,1,2,1.7388,1,1,0.086499,1,1,
32,0.7289,2,2,1,1.1417,1,2,0.48406,1,1,
32,0.74702,2,2,1,1.4379,1,1,0.15259,1,1,
32,0.57239,2,1,2,1.3504,1,2,0.25658,1,1,
32,0.49188,2,1,2,1.4785,1,2,0.25751,1,1,
32,0.46047,2,1,2,1.5874,1,1,0.086702,1,1,
32,0.52986,2,1,2,1.1458,1,1,0.094549,1,1,
32,0.50324,2,1,2,1.9053,1,2,0.27002,1,1,
32,0.66148,2,2,1,1.6402,1,2,0.46117,1,1,
32,0.44284,2,2,1,1.1629,1,2,0.45766,1,1,
32,0.35872,2,2,1,1.5659,1,1,0.14524,1,1,
32,0.5402,2,2,1,1.9316,1,2,0.4794,1,1,
32,0.50374,2,2,1,1.7831,1,1,0.14898,1,1,
32,0.64548,2,2,1,1.6857,1,1,0.14865,1,1,
32,0.48255,2,2,1,1.4662,1,2,0.46295,1,1,
32,0.63201,2,2,1,1.2603,1,2,0.45668,1,1,
32,0.42637,2,2,1,1.5693,1,2,0.45106,1,1,
32,0.50175,2,2,1,1.2488,1,2,0.46623,1,1,
32,0.67576,2,2,1,1.3193,1,1,0.16055,1,1,
32,0.43518,2,1,2,1.9108,1,1,0.091623,1,1,
32,0.64438,2,1,2,1.8852,1,2,0.26439,1,1,
32,0.64476,2,1,2,1.7946,1,1,0.087346,1,1,
32,0.72543,2,2,1,1.9258,1,1,0.15158,1,1,
32,0.74902,2,2,1,1.1788,1,2,0.43369,1,1,
32,0.67721,2,2,1,1.5175,1,1,0.15941,1,1,
32,0.438,2,1,2,1.627,1,2,0.27454,1,1,
32,0.39134,2,1,2,1.9132,1,2,0.26199,1,1,
32,0.51356,2,1,2,1.664,1,2,0.27171,1,1,
32,0.7123,2,2,1,1.3892,1,2,0.43502,1,1,
32,0.56258,2,2,1,1.74,1,1,0.15915,1,1,
32,0.49438,2,1,2,1.8176,1,1,0.08977,1,1,
32,0.49133,2,1,2,1.6003,1,1,0.090863,1,1,
32,0.88089,2,1,1,1.085,0,1,0.15383,1,1,
32,0.62297,2,2,1,1.9224,1,1,0.15585,1,1,
32,0.59583,2,2,1,1.0536,1,2,0.45122,1,1,
32,0.60635,2,1,2,1.527,1,2,0.25824,1,1,
32,0.96777,2,2,2,1.1189,0,1,0.089909,1,1,
32,1.0309,2,2,1,1.3801,1,2,0.43472,1,1,
32,0.4016,2,1,2,1.8128,1,2,0.27862,1,1,
32,0.92111,2,2,1,1.2441,1,1,0.14474,1,1,
32,0.37012,2,1,2,1.8844,1,1,0.095213,1,1,
32,0.5746,2,2,1,1.7126,1,2,0.47091,1,1,
32,0.5277,2,1,2,1.3781,1,1,0.095029,1,1,
32,0.51719,2,1,2,1.2489,1,2,0.2715,1,1,
32,0.59187,2,2,1,1.2529,1,2,0.44449,1,1,
32,0.62377,2,2,1,1.7672,1,1,0.14849,1,1,
32,0.42154,2,1,2,1.0499,1,2,0.27929,1,1,
32,0.5377,2,2,1,1.6853,1,1,0.16157,1,1,
32,0.48122,2,1,1,1.6203,0,1,0.15015,1,1,
32,0.48189,2,1,1,1.7467,0,1,0.15716,1,1,
32,0.53617,2,1,2,1.9773,1,1,0.086395,1,1,
32,0.44596,2,1,2,1.3839,1,1,0.091377,1,1,
32,0.88643,2,1,1,1.2602,0,2,0.45431,1,1,
32,0.62906,2,2,1,1.8775,1,2,0.47028,1,1,
32,0.49982,2,2,1,1.8061,1,1,0.14851,1,1,
32,0.54497,2,1,2,1.4611,1,1,0.086243,1,1,
32,0.45519,2,1,2,1.091,1,2,0.26956,1,1,
32,0.65951,2,2,1,1.5643,1,1,0.15513,1,1,
32,0.45533,2,1,2,1.1874,1,2,0.25984,1,1,
32,0.44378,2,2,1,1.5317,1,1,0.15182,1,1,
32,0.36204,2,1,2,1.355,1,1,0.091959,1,1,
32,0.61013,2,1,2,1.3148,1,1,0.093828,1,1,
32,0.44969,2,2,2,1.7267,0,2,0.26516,1,1,
32,0.26227,2,1,2,1.5158,1,2,0.26805,1,1,
32,0.45813,2,2,2,1.7906,0,2,0.28335,1,1,
32,0.83753,2,1,2,1.2045,1,2,0.27742,1,1,
32,0.65351,2,1,1,1.3568,1,2,0.48113,0,0,
32,0.45894,2,1,1,1.144,1,1,0.15678,0,0,
32,0.36082,2,1,1,1.8506,1,2,0.47132,0,0,
32,0.64111,2,1,1,1.3379,1,1,0.15103,0,0,
32,0.5327,2,2,2,1.2752,1,2,0.26308,0,0,
32,0.28236,2,1,1,1.006,1,1,0.15302,0,0,
32,0.56157,2,1,1,1.8019,1,2,0.44338,0,0,
32,0.39901,2,2,2,1.4974,1,2,0.28198,0,0,
32,0.42115,2,1,1,1.5378,1,1,0.15554,0,0,
32,0.40557,2,1,1,1.8709,1,2,0.47493,0,0,
32,0.52528,2,1,1,1.7228,1,2,0.47371,0,0,
32,0.62447,2,1,1,1.6681,1,1,0.15211,0,0,
32,0.58386,2,2,2,1.1788,1,1,0.088402,0,0,
32,0.37756,2,1,1,1.5505,1,1,0.15598,0,0,
32,0.44886,2,2,2,1.9599,1,2,0.28671,0,0,
32,0.38444,2,2,2,1.596,1,2,0.27964,0,0,
32,0.43924,2,1,1,1.8086,1,1,0.15855,0,0,
32,0.53959,2,2,2,1.9845,1,2,0.27759,0,0,
32,0.39114,2,1,1,1.8859,1,2,0.46301,0,0,
32,0.48134,2,2,2,1.2138,1,1,0.093031,0,0,
32,0.43295,2,2,2,1.0346,1,1,0.090328,0,0,
32,0.32159,2,1,1,1.4511,1,2,0.47761,0,0,
32,0.39446,2,2,2,1.0138,1,2,0.25793,0,0,
32,0.26715,2,1,1,1.4737,1,1,0.16111,0,0,
32,0.42817,2,1,1,1.9512,1,1,0.14576,0,0,
32,0.57577,2,2,2,1.249,1,1,0.090852,0,0,
32,0.31913,2,1,1,1.3864,1,2,0.45286,0,0,
32,0.27996,2,2,2,1.4314,1,2,0.25909,0,0,
32,0.40172,2,2,2,1.8309,1,2,0.27817,0,0,
32,0.2686,2,1,1,1.8246,1,1,0.15466,0,0,
32,0.43966,2,2,2,1.453,1,2,0.28006,0,0,
32,0.27355,2,1,1,1.3806,1,2,0.46148,0,0,
32,0.45742,2,1,1,1.9259,1,1,0.15822,0,0,
32,0.39363,2,1,1,1.7408,1,2,0.46202,0,0,
32,0.47679,2,2,2,1.7376,1,2,0.2853,0,0,
32,0.3697,2,2,2,1.9469,1,2,0.28293,0,0,
32,0.42814,2,1,1,1.5101,1,2,0.45835,0,0,
32,0.60163,2,2,2,1.7919,1,1,0.093417,0,0,
32,0.36423,2,2,2,1.4522,1,1,0.090082,0,0,
32,0.29445,2,1,1,1.8492,1,2,0.47562,0,0,
32,0.63401,2,2,2,1.3904,1,2,0.2656,0,0,
32,0.31816,2,2,2,1.7384,1,2,0.28636,0,0,
32,0.83296,2,2,2,1.9764,1,1,0.088084,0,0,
32,0.38948,2,2,2,1.5233,1,1,0.086025,0,0,
32,0.37526,2,1,1,1.4299,1,2,0.47139,0,0,
32,0.63419,2,1,1,1.2072,1,1,0.15858,0,0,
32,0.48755,2,1,1,1.3234,1,2,0.48077,0,0,
32,0.36429,2,1,1,1.1109,1,1,0.14964,0,0,
32,1.1707,2,2,2,1.3752,1,1,0.093581,0,0,
32,0.35833,2,1,1,1.3299,1,2,0.45997,0,0,
32,0.59352,2,2,2,1.3421,1,2,0.26994,0,0,
32,0.3985,2,1,1,1.8171,1,1,0.15839,0,0,
32,0.30482,2,2,2,1.5317,1,2,0.28556,0,0,
32,0.90202,2,2,2,1.5211,1,1,0.086059,0,0,
32,0.61255,2,1,1,1.7743,1,2,0.46909,0,0,
32,NaN,2,0,2,1.1203,NaN,1,0.087646,0,0,
32,0.38226,2,1,1,1.6255,1,2,0.45265,0,0,
32,1.2541,2,2,2,1.3466,1,1,0.087981,0,0,
32,0.41331,2,1,1,1.3346,1,2,0.47582,0,0,
32,0.68487,2,2,2,1.5746,1,1,0.095665,0,0,
32,0.38702,2,1,1,1.8639,1,1,0.15531,0,0,
32,0.43775,2,2,2,1.1986,1,1,0.092509,0,0,
32,0.3972,2,2,2,1.6725,1,2,0.28492,0,0,
32,0.60712,2,1,1,1.9018,1,1,0.15598,0,0,
32,1.0096,2,1,1,1.1992,1,1,0.15386,0,0,
32,0.8103,2,1,1,1.2983,1,2,0.45171,0,0,
32,0.4642,2,1,1,1.4965,1,1,0.15503,0,0,
32,0.73507,2,2,2,1.8899,1,2,0.26685,0,0,
32,0.41307,2,2,2,1.5014,1,2,0.26822,0,0,
32,0.92668,2,2,2,1.277,1,1,0.089006,0,0,
32,0.44401,2,2,2,1.534,1,2,0.2701,0,0,
32,0.93288,2,2,2,1.5742,1,1,0.090397,0,0,
32,0.54623,2,1,1,1.4128,1,2,0.48012,0,0,
32,0.49023,2,1,1,1.0148,1,2,0.44273,0,0,
32,0.47929,2,2,2,1.7028,1,2,0.26609,0,0,
32,1.0883,2,2,2,1.5067,1,1,0.091136,0,0,
32,0.61613,2,2,2,1.3813,1,1,0.090226,0,0,
32,0.52461,2,1,1,1.0649,1,2,0.44559,0,0,
32,0.47961,2,2,2,1.3586,1,1,0.091194,0,0,
32,0.45953,2,1,1,1.2343,1,1,0.15945,0,0,
32,0.40404,2,1,1,1.2035,1,1,0.14513,0,0,
32,0.44122,2,2,2,1.8138,1,1,0.089749,0,0,
32,0.47843,2,2,2,1.3934,1,2,0.25842,0,0,
32,0.6045,2,2,2,1.0536,1,2,0.27307,0,0,
32,0.34388,2,2,2,1.3751,1,2,0.27231,0,0,
32,0.41061,2,1,1,1.775,1,1,0.15744,0,0,
32,0.44012,2,2,2,1.1653,1,1,0.087627,0,0,
32,0.48706,2,2,2,1.9122,1,2,0.27383,0,0,
32,0.56564,2,1,1,1.3192,1,2,0.45579,0,0,
32,0.44855,2,1,1,1.3298,1,1,0.15913,0,0,
32,0.33558,2,2,2,1.2042,1,1,0.09205,0,0,
32,0.48679,2,2,2,1.7672,1,1,0.088854,0,0,
32,0.34773,2,1,1,1.07,1,2,0.44997,0,0,
32,0.46772,2,1,1,1.95,1,1,0.14838,0,0,
32,0.56798,2,2,2,1.1582,1,1,0.095194,0,0,
32,0.43183,2,2,2,1.2864,1,2,0.26486,0,0,
32,0.40036,2,1,1,1.6871,1,1,0.14676,0,0,
32,1.1998,2,1,2,1.1411,0,1,0.08893,0,0,
32,0.2824,2,1,1,1.5121,1,1,0.15696,0,0,
32,0.43862,2,1,1,1.7213,1,2,0.46894,0,0,
32,NaN,2,0,2,1.0523,NaN,1,0.09216,0,1,
32,0.73723,2,2,1,1.5568,1,2,0.44749,0,1,
32,0.39838,2,1,2,1.712,1,2,0.27206,0,1,
32,0.69507,2,2,1,1.4879,1,2,0.43241,0,1,
32,0.41077,2,1,2,1.6176,1,2,0.28333,0,1,
32,0.41867,2,2,1,1.2138,1,2,0.45294,0,1,
32,0.74253,2,2,1,1.6457,1,1,0.1492,0,1,
32,0.48695,2,2,1,1.3806,1,2,0.48234,0,1,
32,0.5145,2,1,2,1.1037,1,1,0.089953,0,1,
32,0.32286,2,1,2,1.3775,1,1,0.088179,0,1,
32,0.49537,2,2,1,1.2629,1,2,0.43657,0,1,
32,0.32144,2,1,2,1.2413,1,2,0.27366,0,1,
32,0.35927,2,2,1,1.6229,1,1,0.14667,0,1,
32,0.32641,2,1,2,1.5229,1,2,0.25808,0,1,
32,0.30716,2,2,1,1.4132,1,1,0.15407,0,1,
32,0.49338,2,2,1,1.2178,1,2,0.44686,0,1,
32,0.34327,2,2,1,1.8586,1,1,0.15024,0,1,
32,0.61856,2,1,2,1.861,1,2,0.27819,0,1,
32,0.61567,2,1,2,1.2839,1,1,0.094167,0,1,
32,0.9127,2,2,1,1.6154,1,1,0.15,0,1,
32,0.4239,2,1,2,1.7795,1,1,0.095295,0,1,
32,0.60939,2,2,1,1.9548,1,1,0.16083,0,1,
32,0.71627,2,2,1,1.9196,1,1,0.14757,0,1,
32,0.48734,2,2,1,1.3848,1,1,0.15744,0,1,
32,0.5152,2,1,2,1.1626,1,2,0.27471,0,1,
32,0.62335,2,2,1,1.7968,1,2,0.48058,0,1,
32,0.69452,2,2,1,1.1138,1,2,0.46339,0,1,
32,0.91881,2,1,2,1.1588,1,1,0.092489,0,1,
32,0.60193,2,1,2,1.3558,1,1,0.092933,0,1,
32,1.2322,2,2,1,1.8478,1,2,0.45193,0,1,
32,0.59615,2,2,1,1.5828,1,1,0.14835,0,1,
32,0.40279,2,1,2,1.5862,1,2,0.25701,0,1,
32,0.52436,2,1,1,1.9258,0,1,0.15216,0,1,
32,0.51474,2,1,1,1.5751,0,2,0.46567,0,1,
32,1.3635,2,2,1,1.01,1,2,0.44645,0,1,
32,0.37381,2,1,2,1.8094,1,1,0.090548,0,1,
32,0.6042,2,2,1,1.6088,1,2,0.44474,0,1,
32,0.97231,2,2,1,1.4799,1,1,0.14913,0,1,
32,0.52787,2,2,1,1.2684,1,2,0.46595,0,1,
32,0.57382,2,1,2,1.2581,1,2,0.28358,0,1,
32,0.36281,2,1,2,1.481,1,2,0.28259,0,1,
32,0.28545,2,1,2,1.2273,1,2,0.26218,0,1,
32,0.31836,2,1,2,1.0486,1,2,0.26795,0,1,
32,0.44299,2,1,1,1.1692,0,1,0.15962,0,1,
32,0.64267,2,2,1,1.2584,1,1,0.14843,0,1,
32,0.44901,2,2,1,1.1979,1,2,0.48324,0,1,
32,0.52447,2,2,1,1.6057,1,2,0.46428,0,1,
32,0.83275,2,2,1,1.8237,1,1,0.14688,0,1,
32,0.55465,2,1,2,1.8106,1,2,0.28146,0,1,
32,0.67975,2,1,2,1.8022,1,2,0.27599,0,1,
32,1.0671,2,2,1,1.7081,1,1,0.15347,0,1,
32,1.1021,2,1,2,1.8594,1,1,0.087811,0,1,
32,1.0127,2,1,2,1.7811,1,1,0.085702,0,1,
32,0.34011,2,1,2,1.2038,1,2,0.26289,0,1,
32,0.57819,2,2,1,1.9933,1,1,0.15023,0,1,
32,1.0384,2,1,2,1.0936,1,1,0.091761,0,1,
32,0.77157,2,2,1,1.6506,1,1,0.16144,0,1,
32,0.96234,2,2,2,1.2152,0,1,0.087366,0,1,
32,0.78131,2,1,2,1.2439,1,1,0.093076,0,1,
32,0.4415,2,1,2,1.3397,1,1,0.094471,0,1,
32,0.78576,2,2,1,1.1979,1,2,0.45649,0,1,
32,0.6856,2,1,2,1.5068,1,1,0.086882,0,1,
32,0.60172,2,2,1,1.9508,1,1,0.15821,0,1,
32,0.3809,2,1,2,1.3946,1,2,0.27035,0,1,
32,0.84744,2,2,1,1.5845,1,1,0.14605,0,1,
32,0.51535,2,1,2,1.6065,1,2,0.28307,0,1,
32,0.43827,2,1,2,1.7146,1,2,0.27534,0,1,
32,0.82033,2,1,2,1.4015,1,2,0.2588,0,1,
32,0.60735,2,2,1,1.8587,1,1,0.16,0,1,
32,0.49676,2,1,2,1.9205,1,1,0.085652,0,1,
32,0.63798,2,1,2,1.7508,1,2,0.25709,0,1,
32,0.47911,2,1,2,1.2856,1,1,0.09559,0,1,
32,0.54508,2,2,1,1.7968,1,1,0.15596,0,1,
32,0.66843,2,2,1,1.1428,1,2,0.4515,0,1,
32,0.39565,2,1,2,1.5046,1,2,0.27122,0,1,
32,0.60439,2,1,2,1.6107,1,1,0.093145,0,1,
32,0.42548,2,2,1,1.7038,1,2,0.43477,0,1,
32,0.73329,2,2,1,1.3833,1,1,0.15667,0,1,
32,0.57483,2,1,2,1.7287,1,1,0.092481,0,1,
32,0.6085,2,1,1,1.8873,0,2,0.45579,0,1,
32,NaN,2,0,1,1.0558,NaN,1,0.1541,0,1,
32,0.85628,2,1,2,1.1382,1,1,0.088703,0,1,
32,0.31262,2,1,2,1.8631,1,2,0.261,0,1,
32,0.68649,2,2,1,1.4217,1,1,0.15089,0,1,
32,0.6149,2,1,2,1.4113,1,1,0.094836,0,1,
32,0.76157,2,1,2,1.9591,1,2,0.26267,0,1,
32,0.60262,2,2,1,1.7502,1,2,0.45068,0,1,
32,0.65384,2,1,2,1.981,1,2,0.26566,0,1,
32,0.43596,2,1,2,1.2335,1,2,0.2584,0,1,
32,0.57483,2,2,1,1.0962,1,2,0.45862,0,1,
32,0.2766,2,2,2,1.3846,0,2,0.28168,0,1,
32,NaN,2,0,2,1.5003,NaN,1,0.094671,0,1,
32,1.3124,2,1,2,1.5703,1,1,0.092718,0,1,
32,0.5385,2,1,2,1.9766,1,1,0.089153,0,1,
32,0.60873,2,2,1,1.4929,1,2,0.44743,0,1,
32,0.3753,2,2,1,1.4009,1,2,0.46817,0,1,
32,0.38651,2,2,1,1.995,1,2,0.47846,0,1,
32,0.32526,2,2,1,1.261,1,2,0.48089,0,1,
32,NaN,2,0,1,1.6653,NaN,1,0.14547,0,1,
32,0.60381,2,1,2,1.9643,1,1,0.090182,0,1,
32,0.52522,2,2,2,1.8687,1,1,0.086929,1,0,
32,0.32879,2,2,2,1.5286,1,1,0.094686,1,0,
32,0.59827,2,1,1,1.9141,1,1,0.1454,1,0,
32,0.49888,2,1,1,1.9739,1,1,0.14984,1,0,
32,0.52209,2,1,1,1.5854,1,1,0.15407,1,0,
32,0.5211,2,1,1,1.119,1,1,0.15222,1,0,
32,0.5864,2,2,2,1.9265,1,2,0.28078,1,0,
32,NaN,2,0,2,1.5936,NaN,2,0.27205,1,0,
32,0.39916,2,1,1,1.8836,1,1,0.14793,1,0,
32,0.58989,2,1,1,1.4245,1,1,0.15638,1,0,
32,0.3324,2,1,1,1.6073,1,2,0.4398,1,0,
32,0.38905,2,1,2,1.0708,0,2,0.27607,1,0,
32,0.65691,2,2,2,1.9248,1,2,0.2753,1,0,
32,0.52393,2,1,2,1.6421,0,1,0.087589,1,0,
32,0.50952,2,2,2,1.1045,1,1,0.087116,1,0,
32,0.38614,2,1,1,1.7002,1,1,0.1469,1,0,
32,NaN,2,0,2,1.3958,NaN,2,0.26037,1,0,
32,0.6672,2,2,2,1.0849,1,2,0.26196,1,0,
32,0.43022,2,1,1,1.2145,1,1,0.16086,1,0,
32,0.58306,2,2,2,1.2488,1,1,0.085463,1,0,
32,0.53068,2,1,1,1.2267,1,1,0.16091,1,0,
32,0.5635,2,1,1,1.703,1,2,0.43362,1,0,
32,0.79954,2,1,1,1.7542,1,1,0.16116,1,0,
32,0.54897,2,1,1,1.5473,1,2,0.4474,1,0,
32,0.38054,2,2,2,1.5535,1,2,0.27187,1,0,
32,1.2226,2,2,2,1.6306,1,1,0.094211,1,0,
32,0.53862,2,1,1,1.9855,1,2,0.47934,1,0,
32,0.39099,2,2,2,1.6343,1,2,0.26155,1,0,
32,0.6249,2,1,1,1.6005,1,2,0.4665,1,0,
32,0.35188,2,1,1,1.9092,1,2,0.48182,1,0,
32,0.47109,2,1,1,1.5708,1,1,0.16124,1,0,
32,0.62408,2,2,2,1.3354,1,2,0.25912,1,0,
32,0.33144,2,2,2,1.9571,1,1,0.087082,1,0,
32,0.5559,2,2,2,1.4399,1,1,0.092963,1,0,
32,0.37772,2,1,1,1.6015,1,2,0.4348,1,0,
32,0.50506,2,1,1,1.7203,1,2,0.4359,1,0,
32,0.48257,2,1,1,1.6788,1,2,0.45738,1,0,
32,0.61517,2,1,1,1.2128,1,1,0.15893,1,0,
32,0.44473,2,1,1,1.0816,1,1,0.16164,1,0,
32,0.51779,2,2,2,1.2745,1,2,0.25605,1,0,
32,0.56204,2,2,2,1.8675,1,1,0.090806,1,0,
32,0.73315,2,2,2,1.5594,1,2,0.2826,1,0,
32,NaN,2,0,1,1.4646,NaN,2,0.48004,1,0,
32,0.94902,2,2,2,1.4303,1,2,0.28208,1,0,
32,0.44967,2,2,2,1.774,1,1,0.09439,1,0,
32,0.85742,2,2,2,1.6539,1,1,0.092959,1,0,
32,0.53302,2,1,1,1.6577,1,2,0.43822,1,0,
32,0.70764,2,2,2,1.161,1,2,0.27137,1,0,
32,0.45262,2,2,2,1.4324,1,1,0.086981,1,0,
32,0.50508,2,2,2,1.5051,1,1,0.093873,1,0,
32,0.64297,2,1,1,1.3753,1,2,0.48108,1,0,
32,0.47938,2,2,1,1.4804,0,2,0.44085,1,0,
32,0.68186,2,2,2,1.3424,1,2,0.28333,1,0,
32,0.78487,2,1,1,1.7771,1,2,0.45208,1,0,
32,0.78522,2,2,2,1.3839,1,1,0.089148,1,0,
32,0.93093,2,2,2,1.7116,1,2,0.26405,1,0,
32,0.43766,2,2,2,1.4809,1,2,0.28281,1,0,
32,0.57579,2,1,1,1.7292,1,1,0.15695,1,0,
32,0.71336,2,1,1,1.9376,1,1,0.15174,1,0,
32,0.38327,2,2,2,1.5173,1,2,0.27771,1,0,
32,0.80473,2,2,2,1.9031,1,1,0.095104,1,0,
32,0.36282,2,1,1,1.2182,1,1,0.14703,1,0,
32,0.42432,2,2,2,1.8732,1,1,0.087743,1,0,
32,0.42342,2,1,1,1.0827,1,2,0.46544,1,0,
32,0.37733,2,1,1,1.4654,1,2,0.47452,1,0,
32,0.35603,2,1,1,1.0219,1,1,0.15899,1,0,
32,0.30073,2,1,1,1.8083,1,1,0.15087,1,0,
32,0.6702,2,1,2,1.1792,0,1,0.086449,1,0,
32,0.4405,2,1,1,1.1654,1,1,0.14545,1,0,
32,0.52062,2,1,1,1.1816,1,2,0.45065,1,0,
32,0.43063,2,2,2,1.6914,1,2,0.28155,1,0,
32,0.32992,2,2,2,1.2138,1,2,0.26232,1,0,
32,1.3452,2,1,1,1.2981,1,2,0.47356,1,0,
32,0.34363,2,2,2,1.7683,1,1,0.091985,1,0,
32,0.46102,2,1,1,1.5012,1,2,0.43364,1,0,
32,0.60309,2,1,1,1.9095,1,1,0.15776,1,0,
32,0.49953,2,2,2,1.0579,1,2,0.2846,1,0,
32,0.37572,2,2,2,1.4368,1,2,0.27085,1,0,
32,0.55865,2,1,1,1.5723,1,1,0.15864,1,0,
32,0.41629,2,2,1,1.5651,0,1,0.14631,1,0,
32,0.39129,2,1,2,1.8238,0,1,0.093105,1,0,
32,0.60409,2,1,1,1.1261,1,2,0.48096,1,0,
32,0.38579,2,2,2,1.3001,1,1,0.09389,1,0,
32,0.49122,2,2,2,1.0021,1,1,0.087893,1,0,
32,0.56652,2,2,2,1.9511,1,1,0.087425,1,0,
32,0.58448,2,2,2,1.7663,1,1,0.090594,1,0,
32,0.63056,2,2,2,1.7513,1,2,0.2679,1,0,
32,0.56898,2,2,1,1.1389,0,1,0.15228,1,0,
32,0.42765,2,1,1,1.3493,1,2,0.48475,1,0,
32,0.42846,2,2,2,1.1513,1,2,0.27437,1,0,
32,0.52216,2,1,1,1.4967,1,2,0.48202,1,0,
32,0.29214,2,2,2,1.8087,1,1,0.090262,1,0,
32,0.66328,2,1,1,1.6329,1,1,0.15156,1,0,
32,0.57745,2,1,1,1.6884,1,2,0.47256,1,0,
32,0.40777,2,2,1,1.6396,0,2,0.471,1,0,
32,0.42461,2,1,1,1.7293,1,2,0.45495,1,0,
32,0.41674,2,1,1,1.8598,1,1,0.14499,1,0,
32,0.54678,2,2,2,1.627,1,1,0.086174,1,0,
32,0.81382,2,2,2,1.1806,1,2,0.28055,1,0,
32,0.90171,2,2,2,1.5733,1,2,0.27598,1,0,
32,NaN,2,0,2,1.0516,NaN,2,0.26972,1,1,
32,0.57838,2,2,1,1.5041,1,2,0.45493,1,1,
32,NaN,2,0,2,1.7684,NaN,1,0.089886,1,1,
32,0.38058,2,1,2,1.283,1,2,0.28534,1,1,
32,0.59652,2,1,2,1.2254,1,2,0.26246,1,1,
32,0.61344,2,2,1,1.3313,1,1,0.15952,1,1,
32,0.53128,2,2,1,1.4533,1,2,0.43333,1,1,
32,0.62557,2,2,1,1.7374,1,2,0.44969,1,1,
32,0.69195,2,1,2,1.5099,1,1,0.093172,1,1,
32,0.052314,2,1,2,1.3825,1,2,0.26622,1,1,
32,0.04522,2,1,1,1.9055,0,1,0.15475,1,1,
32,0.50369,2,1,1,1.9653,0,2,0.45548,1,1,
32,0.33224,2,2,1,1.6283,1,2,0.43284,1,1,
32,0.70945,2,2,1,1.132,1,2,0.46321,1,1,
32,0.44489,2,1,2,1.6183,1,1,0.091425,1,1,
32,0.77635,2,1,2,1.383,1,1,0.09193,1,1,
32,0.64961,2,1,2,1.9912,1,1,0.08874,1,1,
32,0.36024,2,1,2,1.2868,1,2,0.27088,1,1,
32,0.41869,2,1,2,1.7062,1,1,0.092485,1,1,
32,0.70192,2,2,1,1.5352,1,2,0.47886,1,1,
32,0.39605,2,1,2,1.1932,1,2,0.25755,1,1,
32,0.55988,2,1,2,1.6894,1,1,0.086278,1,1,
32,0.41736,2,1,2,1.0505,1,2,0.2758,1,1,
32,0.2928,2,1,2,1.1844,1,2,0.27945,1,1,
32,0.35051,2,1,1,1.0457,0,1,0.16147,1,1,
32,0.81043,2,1,2,1.885,1,1,0.086547,1,1,
32,0.47454,2,2,1,1.8398,1,1,0.15029,1,1,
32,0.62361,2,1,2,1.1182,1,2,0.27664,1,1,
32,0.41616,2,2,1,1.4104,1,1,0.15048,1,1,
32,0.28015,2,1,2,1.1202,1,2,0.28267,1,1,
32,0.48584,2,2,1,1.5721,1,2,0.44711,1,1,
32,0.3261,2,1,2,1.9494,1,2,0.25988,1,1,
32,0.85516,2,2,1,1.2564,1,2,0.46715,1,1,
32,0.47066,2,1,2,1.9899,1,1,0.08732,1,1,
32,0.56767,2,1,2,1.3498,1,2,0.28283,1,1,
32,0.64954,2,1,2,1.2085,1,1,0.093013,1,1,
32,0.61731,2,2,1,1.6658,1,2,0.45372,1,1,
32,0.52363,2,1,2,1.9733,1,1,0.085309,1,1,
32,0.58533,2,2,1,1.6227,1,2,0.43984,1,1,
32,0.75519,2,2,1,1.0635,1,2,0.44618,1,1,
32,0.4721,2,2,2,1.3735,0,2,0.28296,1,1,
32,0.73225,2,2,2,1.1663,0,1,0.091421,1,1,
32,0.7809,2,2,1,1.2313,1,2,0.44862,1,1,
32,0.396,2,2,1,1.0522,1,2,0.44672,1,1,
32,1.319,2,1,2,1.9018,1,1,0.089691,1,1,
32,0.9793,2,1,2,1.7933,1,2,0.28398,1,1,
32,0.39356,2,1,2,1.373,1,1,0.094894,1,1,
32,0.48927,2,1,2,1.8321,1,2,0.27125,1,1,
32,0.54635,2,2,1,1.7538,1,2,0.46473,1,1,
32,0.2859,2,1,2,1.6219,1,1,0.092672,1,1,
32,0.5341,2,2,1,1.3941,1,1,0.14451,1,1,
32,0.6073,2,1,2,1.3593,1,1,0.091145,1,1,
32,0.53014,2,2,2,1.0889,0,1,0.085765,1,1,
32,0.63097,2,1,1,1.3417,0,2,0.45389,1,1,
32,1.6572,2,2,2,1.5487,0,1,0.090027,1,1,
32,0.61933,2,2,1,1.4605,1,2,0.43346,1,1,
32,1.8054,2,2,1,1.6455,1,1,0.1452,1,1,
32,0.69874,2,2,1,1.5135,1,1,0.16029,1,1,
32,0.49739,2,2,1,1.8144,1,1,0.15325,1,1,
32,0.63933,2,2,1,1.0972,1,1,0.15033,1,1,
32,0.44888,2,1,2,1.4637,1,2,0.26687,1,1,
32,0.67223,2,1,2,1.5898,1,2,0.26042,1,1,
32,0.99774,2,1,1,1.1872,0,1,0.14662,1,1,
32,0.68314,2,2,1,1.6113,1,1,0.15005,1,1,
32,0.37233,2,2,1,1.0519,1,2,0.44938,1,1,
32,0.70517,2,1,2,1.5757,1,2,0.2801,1,1,
32,0.55569,2,2,1,1.8423,1,1,0.15242,1,1,
32,1.3431,2,2,2,1.4997,0,1,0.089996,1,1,
32,0.71312,2,2,1,1.439,1,2,0.43892,1,1,
32,0.99693,2,2,1,1.1491,1,2,0.47878,1,1,
32,0.51444,2,1,2,1.0283,1,2,0.27659,1,1,
32,0.52463,2,2,1,1.7567,1,1,0.15866,1,1,
32,0.66216,2,2,1,1.7961,1,2,0.46628,1,1,
32,0.46028,2,1,1,1.2936,0,2,0.48419,1,1,
32,0.67911,2,1,2,1.1152,1,2,0.28648,1,1,
32,0.78869,2,2,1,1.3751,1,1,0.14832,1,1,
32,0.74393,2,1,1,1.8289,0,1,0.15486,1,1,
32,0.49552,2,2,1,1.8418,1,1,0.15672,1,1,
32,0.42622,2,1,2,1.6652,1,2,0.27103,1,1,
32,0.63064,2,2,1,1.9601,1,1,0.15892,1,1,
32,0.93496,2,1,2,1.9431,1,1,0.087203,1,1,
32,0.57043,2,1,2,1.1127,1,2,0.2596,1,1,
32,0.38739,2,2,1,1.6483,1,2,0.43247,1,1,
32,0.34888,2,2,1,1.4808,1,2,0.44002,1,1,
32,0.44548,2,2,1,1.0665,1,1,0.15325,1,1,
32,0.4141,2,1,2,1.8978,1,2,0.27142,1,1,
32,0.66228,2,1,2,1.4972,1,1,0.089175,1,1,
32,0.45719,2,1,2,1.7713,1,2,0.26524,1,1,
32,NaN,2,0,1,1.0604,NaN,1,0.14417,1,1,
32,NaN,2,0,1,1.2625,NaN,1,0.15829,1,1,
32,0.4405,2,1,2,1.6511,1,1,0.091813,1,1,
32,1.3522,2,2,1,1.1336,1,1,0.15175,1,1,
32,0.23851,2,1,2,1.6385,1,2,0.26321,1,1,
32,0.3416,2,2,1,1.3849,1,2,0.47423,1,1,
32,0.33371,2,1,2,1.7657,1,1,0.093796,1,1,
32,0.45473,2,2,1,1.6529,1,1,0.15897,1,1,
32,1.1239,2,2,1,1.3815,1,1,0.15208,1,1,
32,0.83054,2,2,2,1.3,0,1,0.095394,1,1,
32,0.3724,2,1,1,1.3401,0,1,0.15877,1,1,
32,0.48147,2,1,2,1.9189,1,1,0.086082,1,1,
32,0.50322,2,1,1,1.6888,1,2,0.47228,0,0,
32,0.31708,2,1,1,1.1474,1,2,0.44322,0,0,
32,0.34658,2,1,1,1.7776,1,1,0.14468,0,0,
32,0.33684,2,1,1,1.3991,1,2,0.45462,0,0,
32,0.50813,2,2,2,1.8983,1,2,0.28507,0,0,
32,0.36506,2,1,1,1.307,1,1,0.14853,0,0,
32,0.33544,2,1,1,1.0611,1,2,0.46164,0,0,
32,0.29955,2,1,1,1.2195,1,2,0.45061,0,0,
32,0.35985,2,2,2,1.0828,1,2,0.25671,0,0,
32,0.33117,2,1,1,1.9504,1,2,0.45797,0,0,
32,0.41819,2,1,1,1.0164,1,1,0.15851,0,0,
32,0.30075,2,1,1,1.1147,1,1,0.14847,0,0,
32,0.26139,2,1,1,1.0124,1,1,0.14487,0,0,
32,0.24139,2,1,1,1.2162,1,2,0.44478,0,0,
32,0.25904,2,1,1,1.0114,1,2,0.46651,0,0,
32,0.43386,2,2,2,1.6424,1,2,0.26581,0,0,
32,0.3072,2,1,1,1.517,1,1,0.15548,0,0,
32,0.29632,2,1,1,1.2455,1,2,0.43298,0,0,
32,0.30005,2,1,1,1.1937,1,1,0.15653,0,0,
32,0.30241,2,1,1,1.0909,1,2,0.45225,0,0,
32,0.28335,2,1,1,1.3684,1,1,0.14467,0,0,
32,0.73174,2,1,1,1.0078,1,1,0.15101,0,0,
32,1.0369,2,2,2,1.6027,1,1,0.09264,0,0,
32,0.46941,2,2,2,1.4789,1,1,0.094853,0,0,
32,0.49989,2,2,2,1.3081,1,2,0.28662,0,0,
32,0.48684,2,2,2,1.7444,1,2,0.2866,0,0,
32,0.39404,2,1,1,1.8393,1,2,0.47933,0,0,
32,0.33077,2,1,1,1.2624,1,1,0.15922,0,0,
32,0.48929,2,2,2,1.5142,1,2,0.28064,0,0,
32,0.40598,2,2,2,1.4468,1,1,0.090935,0,0,
32,0.35383,2,2,2,1.3412,1,2,0.26856,0,0,
32,0.43194,2,2,2,1.8391,1,1,0.086565,0,0,
32,0.40399,2,2,2,1.9825,1,2,0.27595,0,0,
32,0.61529,2,2,2,1.6265,1,2,0.28269,0,0,
32,0.43091,2,1,1,1.1813,1,2,0.44622,0,0,
32,0.3956,2,1,1,1.123,1,2,0.47624,0,0,
32,0.57334,2,1,1,1.58,1,2,0.43587,0,0,
32,0.41334,2,2,2,1.3285,1,1,0.089109,0,0,
32,0.34515,2,1,1,1.2682,1,2,0.44589,0,0,
32,0.31546,2,2,2,1.5502,1,2,0.26047,0,0,
32,0.24133,2,1,1,1.1805,1,1,0.15497,0,0,
32,0.30999,2,1,1,1.6785,1,2,0.44837,0,0,
32,0.28015,2,1,1,1.0557,1,2,0.48281,0,0,
32,0.37834,2,2,2,1.0341,1,1,0.090348,0,0,
32,0.43096,2,2,2,1.2865,1,1,0.092878,0,0,
32,0.3516,2,2,2,1.0774,1,1,0.085432,0,0,
32,0.45012,2,2,2,1.9006,1,1,0.091464,0,0,
32,0.5667,2,2,2,1.8466,1,2,0.27348,0,0,
32,0.90285,2,2,2,1.3957,1,1,0.093617,0,0,
32,0.2781,2,1,1,1.1692,1,2,0.4662,0,0,
32,0.39931,2,1,2,1.4305,0,1,0.094383,0,0,
32,0.54609,2,2,2,1.4162,1,2,0.28394,0,0,
32,0.90884,2,2,2,1.7288,1,1,0.086815,0,0,
32,0.33273,2,2,2,1.4065,1,2,0.26166,0,0,
32,0.32813,2,2,2,1.9518,1,1,0.09344,0,0,
32,0.47348,2,2,2,1.912,1,1,0.085905,0,0,
32,0.33951,2,2,2,1.9514,1,2,0.26767,0,0,
32,1.0158,2,1,1,1.346,1,2,0.44753,0,0,
32,0.58512,2,1,1,1.2902,1,1,0.15682,0,0,
32,0.45246,2,2,2,1.8867,1,1,0.086337,0,0,
32,0.41426,2,1,1,1.21,1,1,0.15788,0,0,
32,0.35318,2,1,1,1.1309,1,2,0.4731,0,0,
32,0.28552,2,2,2,1.5205,1,2,0.2721,0,0,
32,0.43639,2,2,2,1.9055,1,2,0.2635,0,0,
32,0.35836,2,1,1,1.4025,1,1,0.14529,0,0,
32,0.36285,2,1,1,1.2158,1,2,0.46463,0,0,
32,NaN,2,0,1,1.0787,NaN,1,0.14452,0,0,
32,0.34373,2,1,1,1.9331,1,2,0.43543,0,0,
32,0.30027,2,1,1,1.6029,1,1,0.14628,0,0,
32,0.31113,2,2,2,1.3775,1,2,0.26955,0,0,
32,0.33109,2,2,2,1.6649,1,2,0.27652,0,0,
32,0.32561,2,2,2,1.7922,1,2,0.28243,0,0,
32,0.39245,2,1,1,1.3335,1,1,0.15262,0,0,
32,0.33867,2,1,1,1.6927,1,2,0.43477,0,0,
32,0.48347,2,2,2,1.2038,1,2,0.26534,0,0,
32,0.30304,2,1,1,1.9587,1,1,0.15516,0,0,
32,0.6047,2,2,2,1.7118,1,1,0.093391,0,0,
32,0.24088,2,1,1,1.1669,1,2,0.44697,0,0,
32,0.27668,2,2,2,1.4428,1,1,0.09034,0,0,
32,0.43437,2,2,2,1.633,1,1,0.093736,0,0,
32,0.38611,2,2,2,1.93,1,2,0.27407,0,0,
32,0.52298,2,2,2,1.5293,1,2,0.27222,0,0,
32,0.62687,2,2,2,1.6265,1,2,0.26586,0,0,
32,0.57897,2,2,2,1.6808,1,1,0.089448,0,0,
32,0.35474,2,2,2,1.9232,1,1,0.093473,0,0,
32,0.34874,2,1,1,1.1528,1,1,0.14992,0,0,
32,0.4215,2,1,1,1.4057,1,1,0.15199,0,0,
32,0.26419,2,2,2,1.3125,1,2,0.26699,0,0,
32,0.31587,2,2,2,1.6939,1,1,0.092249,0,0,
32,0.3194,2,1,1,1.8907,1,1,0.15385,0,0,
32,0.27992,2,2,2,1.4907,1,2,0.27586,0,0,
32,0.37404,2,2,2,1.8058,1,1,0.090269,0,0,
32,0.32046,2,1,1,1.3264,1,1,0.15088,0,0,
32,0.41927,2,1,1,1.5499,1,1,0.15226,0,0,
32,0.452,2,1,1,1.3888,1,1,0.14522,0,0,
32,0.32787,2,2,2,1.8968,1,1,0.089441,0,0,
32,0.55405,2,1,1,1.6761,1,1,0.16112,0,0,
32,0.29257,2,2,2,1.8284,1,1,0.09333,0,0,
32,0.39517,2,1,1,1.1101,1,2,0.47019,0,0,
32,NaN,2,0,2,1.2792,NaN,1,0.093168,0,0,
32,0.47387,2,2,1,1.9429,1,1,0.15983,0,1,
32,0.33545,2,2,1,1.0966,1,1,0.15344,0,1,
32,0.38487,2,2,1,1.8459,1,2,0.4796,0,1,
32,0.34075,2,1,2,1.9094,1,1,0.085817,0,1,
32,0.2889,2,1,2,1.0113,1,1,0.09363,0,1,
32,0.3349,2,1,1,1.5237,0,1,0.14978,0,1,
32,0.23911,2,1,2,1.6503,1,2,0.26275,0,1,
32,0.35982,2,1,2,1.3851,1,2,0.28134,0,1,
32,0.3667,2,2,1,1.6493,1,1,0.15001,0,1,
32,0.40254,2,1,1,1.7629,0,2,0.44065,0,1,
32,0.21984,2,1,2,1.5757,1,2,0.25675,0,1,
32,0.33955,2,2,1,1.6319,1,1,0.16087,0,1,
32,0.32823,2,1,1,1.2782,0,1,0.15585,0,1,
32,1.3488,2,1,2,1.8398,1,1,0.094192,0,1,
32,1.1208,2,1,2,1.4268,1,2,0.28514,0,1,
32,0.30158,2,1,2,1.6316,1,1,0.092256,0,1,
32,0.92433,2,2,1,1.8335,1,1,0.16017,0,1,
32,0.34962,2,1,2,1.2702,1,2,0.2636,0,1,
32,0.37402,2,1,1,1.4008,0,1,0.15958,0,1,
32,0.96234,2,1,2,1.5543,1,1,0.094839,0,1,
32,0.58787,2,1,2,1.4439,1,1,0.088305,0,1,
32,0.24514,2,1,2,1.0904,1,2,0.25809,0,1,
32,0.31193,2,1,2,1.7444,1,1,0.093187,0,1,
32,0.29364,2,1,2,1.0326,1,2,0.25844,0,1,
32,0.22634,2,1,2,1.4297,1,2,0.27832,0,1,
32,0.39059,2,2,1,1.0373,1,2,0.45521,0,1,
32,0.27612,2,1,2,1.9758,1,2,0.27585,0,1,
32,0.27048,2,1,2,1.5223,1,1,0.086988,0,1,
32,0.31241,2,2,1,1.9096,1,2,0.45961,0,1,
32,0.25938,2,1,2,1.3832,1,2,0.27529,0,1,
32,0.27783,2,1,2,1.8845,1,1,0.085445,0,1,
32,0.28626,2,1,2,1.255,1,1,0.090054,0,1,
32,0.27559,2,1,2,1.909,1,2,0.28341,0,1,
32,0.40136,2,1,2,1.8946,1,1,0.086434,0,1,
32,0.43561,2,2,1,1.3985,1,1,0.15164,0,1,
32,0.39823,2,2,1,1.625,1,1,0.15548,0,1,
32,0.35713,2,2,1,1.5676,1,1,0.14909,0,1,
32,0.3412,2,2,1,1.8945,1,2,0.48232,0,1,
32,0.33571,2,1,2,1.2142,1,1,0.092406,0,1,
32,0.42097,2,1,1,1.0039,0,2,0.44275,0,1,
32,0.57154,2,2,1,1.8806,1,1,0.15362,0,1,
32,0.6425,2,2,1,1.2351,1,1,0.15946,0,1,
32,0.45857,2,2,1,1.2449,1,1,0.15367,0,1,
32,0.38363,2,1,2,1.6409,1,2,0.27908,0,1,
32,0.33909,2,1,2,1.3045,1,2,0.28369,0,1,
32,0.48748,2,2,1,1.8256,1,1,0.15878,0,1,
32,0.30587,2,2,1,1.8837,1,2,0.4389,0,1,
32,0.52914,2,2,1,1.9454,1,1,0.14728,0,1,
32,0.46878,2,2,1,1.3908,1,2,0.44005,0,1,
32,0.28189,2,2,1,1.8013,1,1,0.14459,0,1,
32,0.32104,2,1,2,1.1571,1,1,0.085396,0,1,
32,0.30691,2,2,1,1.6252,1,2,0.46307,0,1,
32,0.29278,2,1,2,1.699,1,2,0.27451,0,1,
32,0.36509,2,1,2,1.0859,1,2,0.28448,0,1,
32,0.29396,2,1,2,1.5312,1,2,0.27847,0,1,
32,0.33135,2,2,1,1.8886,1,2,0.44759,0,1,
32,0.59797,2,2,1,1.2637,1,1,0.15257,0,1,
32,0.4742,2,2,1,1.2348,1,2,0.44538,0,1,
32,0.28604,2,1,2,1.8397,1,2,0.27845,0,1,
32,0.66481,2,2,1,1.4955,1,2,0.43819,0,1,
32,NaN,2,0,2,1.1524,NaN,1,0.092958,0,1,
32,0.46432,2,1,2,1.2308,1,2,0.28093,0,1,
32,0.57333,2,2,1,1.658,1,2,0.47107,0,1,
32,0.23592,2,1,2,1.5629,1,1,0.088683,0,1,
32,0.34731,2,2,1,1.2918,1,2,0.46242,0,1,
32,0.4245,2,2,1,1.6223,1,2,0.45632,0,1,
32,0.2762,2,1,2,1.7159,1,1,0.086168,0,1,
32,0.35393,2,1,2,1.2807,1,1,0.093847,0,1,
32,0.30424,2,1,2,1.4123,1,1,0.092317,0,1,
32,0.4007,2,1,2,1.3622,1,1,0.087973,0,1,
32,0.35245,2,2,1,1.7814,1,2,0.48339,0,1,
32,0.24518,2,1,2,1.1355,1,2,0.26139,0,1,
32,0.32877,2,2,1,1.9021,1,1,0.14917,0,1,
32,0.40152,2,2,1,1.2896,1,1,0.1511,0,1,
32,0.37223,2,2,1,1.4996,1,1,0.14809,0,1,
32,0.55374,2,1,1,1.7836,0,2,0.44215,0,1,
32,0.52267,2,1,2,1.6771,1,1,0.092524,0,1,
32,0.44928,2,1,1,1.1498,0,2,0.44142,0,1,
32,0.39153,2,2,1,1.6966,1,2,0.45913,0,1,
32,0.36412,2,2,1,1.129,1,1,0.14911,0,1,
32,0.41994,2,2,1,1.9459,1,2,0.45599,0,1,
32,0.45392,2,2,1,1.8864,1,1,0.16031,0,1,
32,0.29968,2,2,1,1.515,1,1,0.14774,0,1,
32,0.33179,2,1,1,1.6794,0,2,0.43239,0,1,
32,0.58817,2,1,2,1.9768,1,1,0.094692,0,1,
32,0.33456,2,2,1,1.1255,1,1,0.15585,0,1,
32,0.33324,2,1,2,1.7522,1,1,0.090517,0,1,
32,0.39005,2,1,2,1.8271,1,2,0.27177,0,1,
32,0.34617,2,1,2,1.7814,1,1,0.086324,0,1,
32,0.31753,2,2,1,1.1909,1,2,0.48491,0,1,
32,0.47952,2,1,2,1.4286,1,1,0.088906,0,1,
32,0.5442,2,1,2,1.0145,1,2,0.27502,0,1,
32,0.53985,2,2,1,1.3253,1,2,0.45236,0,1,
32,0.4321,2,2,2,1.1347,0,2,0.25615,0,1,
32,1.3358,2,1,2,1.4505,1,2,0.2725,0,1,
32,0.49195,2,2,1,1.5723,1,2,0.45843,0,1,
32,0.21402,2,1,2,1.792,1,2,0.2633,0,1,
32,0.25512,2,2,1,1.4197,1,2,0.4346,0,1,
32,0.20771,2,1,2,1.5325,1,1,0.093988,0,1,
32,0.78928,2,1,2,1.9257,1,2,0.25735,0,1,
32,0.80526,1,2,1,1.9151,1,1,0.15271,1,0,
32,0.59608,1,2,1,1.901,1,2,0.47234,1,0,
32,0.49889,1,1,2,1.2142,1,1,0.089205,1,0,
32,0.77204,1,1,2,1.5471,1,1,0.089877,1,0,
32,0.48051,1,2,1,1.7847,1,2,0.439,1,0,
32,0.59312,1,2,1,1.1944,1,2,0.47179,1,0,
32,0.74404,1,2,1,1.7469,1,2,0.4614,1,0,
32,0.40531,1,2,2,1.4756,0,1,0.091921,1,0,
32,0.43868,1,1,2,1.5833,1,2,0.28055,1,0,
32,0.45868,1,1,2,1.2605,1,1,0.0875,1,0,
32,1.06,1,2,1,1.0848,1,2,0.47722,1,0,
32,0.84693,1,2,1,1.2981,1,1,0.15993,1,0,
32,0.8007,1,2,1,1.9171,1,2,0.44712,1,0,
32,0.48394,1,1,2,1.4705,1,2,0.27823,1,0,
32,0.66101,1,2,1,1.2695,1,1,0.14986,1,0,
32,1.2886,1,2,1,1.763,1,1,0.14871,1,0,
32,0.53114,1,1,2,1.7722,1,1,0.086996,1,0,
32,0.46193,1,2,1,1.0213,1,2,0.46668,1,0,
32,0.40249,1,1,2,1.88,1,2,0.27221,1,0,
32,1.1787,1,2,2,1.7982,0,1,0.093851,1,0,
32,0.83298,1,2,1,1.3242,1,1,0.14862,1,0,
32,0.8039,1,2,1,1.669,1,2,0.44119,1,0,
32,0.4263,1,1,2,1.2963,1,1,0.089649,1,0,
32,0.61316,1,1,2,1.93,1,1,0.090109,1,0,
32,0.963,1,1,2,1.282,1,1,0.093378,1,0,
32,0.66987,1,2,1,1.1689,1,2,0.43889,1,0,
32,0.67664,1,1,2,1.7452,1,1,0.085813,1,0,
32,0.77658,1,1,2,1.4771,1,2,0.27509,1,0,
32,0.51449,1,2,1,1.6534,1,2,0.43379,1,0,
32,0.80709,1,2,1,1.9666,1,1,0.14639,1,0,
32,0.44883,1,2,1,1.313,1,2,0.46833,1,0,
32,0.55773,1,1,2,1.0764,1,1,0.090525,1,0,
32,0.5842,1,2,1,1.7914,1,1,0.1534,1,0,
32,0.4706,1,1,2,1.3654,1,2,0.28089,1,0,
32,0.49023,1,2,1,1.5851,1,1,0.1579,1,0,
32,0.52797,1,1,2,1.1833,1,2,0.27114,1,0,
32,0.56115,1,2,1,1.0769,1,2,0.44633,1,0,
32,1.1847,1,1,2,1.1537,1,1,0.08649,1,0,
32,0.73917,1,1,2,1.8269,1,1,0.094474,1,0,
32,0.60437,1,2,1,1.301,1,1,0.16114,1,0,
32,0.70725,1,1,2,1.3839,1,1,0.095085,1,0,
32,0.48269,1,2,1,1.6507,1,2,0.46529,1,0,
32,0.68261,1,2,1,1.8174,1,2,0.43687,1,0,
32,0.71101,1,2,1,1.7663,1,2,0.43607,1,0,
32,0.45231,1,2,1,1.3742,1,2,0.44151,1,0,
32,0.45856,1,2,1,1.1899,1,1,0.14464,1,0,
32,0.55902,1,1,2,1.6465,1,2,0.2782,1,0,
32,0.84734,1,1,2,1.0036,1,1,0.086735,1,0,
32,0.44819,1,2,1,1.2829,1,2,0.46518,1,0,
32,0.44763,1,2,1,1.6386,1,1,0.15783,1,0,
32,0.60188,1,1,2,1.5921,1,2,0.27316,1,0,
32,0.45998,1,1,2,1.3253,1,2,0.26729,1,0,
32,0.62437,1,1,2,1.989,1,1,0.09377,1,0,
32,0.68989,1,1,2,1.1232,1,2,0.26506,1,0,
32,0.39958,1,1,2,1.7359,1,2,0.26551,1,0,
32,0.40608,1,1,2,1.1566,1,2,0.28013,1,0,
32,0.4919,1,2,1,1.4346,1,1,0.15272,1,0,
32,0.54237,1,1,2,1.8322,1,2,0.26373,1,0,
32,0.52605,1,1,2,1.3599,1,2,0.27844,1,0,
32,0.3534,1,1,2,1.0762,1,2,0.26077,1,0,
32,0.60941,1,2,1,1.5569,1,1,0.16023,1,0,
32,0.46901,1,2,1,1.2739,1,1,0.14785,1,0,
32,0.44841,1,1,2,1.1321,1,2,0.2584,1,0,
32,0.77656,1,1,2,1.6997,1,1,0.086034,1,0,
32,0.59508,1,1,2,1.4859,1,2,0.27963,1,0,
32,0.45729,1,2,1,1.1827,1,2,0.47501,1,0,
32,0.47674,1,2,1,1.1012,1,2,0.47081,1,0,
32,0.60332,1,1,2,1.2016,1,2,0.27927,1,0,
32,0.32496,1,1,2,1.1347,1,2,0.28587,1,0,
32,0.30817,1,1,1,1.3238,0,1,0.15206,1,0,
32,0.46032,1,2,1,1.9505,1,2,0.47334,1,0,
32,0.37123,1,1,2,1.5321,1,1,0.08956,1,0,
32,1.0854,1,1,2,1.2477,1,1,0.095098,1,0,
32,0.53504,1,1,2,1.4373,1,2,0.25596,1,0,
32,0.5808,1,2,1,1.6691,1,1,0.16135,1,0,
32,0.61237,1,1,2,1.5477,1,2,0.27328,1,0,
32,0.72217,1,2,1,1.6091,1,2,0.44993,1,0,
32,0.45109,1,1,2,1.8631,1,2,0.27289,1,0,
32,1.5124,1,1,1,1.3807,0,1,0.14917,1,0,
32,0.91295,1,1,2,1.749,1,1,0.086884,1,0,
32,1.2547,1,2,1,1.1567,1,1,0.15558,1,0,
32,0.77388,1,2,1,1.0581,1,1,0.15592,1,0,
32,0.57706,1,2,1,1.3397,1,1,0.15788,1,0,
32,0.55584,1,1,2,1.8172,1,1,0.088801,1,0,
32,0.81218,1,1,1,1.3775,0,1,0.14832,1,0,
32,0.59653,1,2,1,1.9726,1,2,0.44985,1,0,
32,0.48979,1,2,1,1.6053,1,1,0.14967,1,0,
32,0.57894,1,1,2,1.3382,1,1,0.09492,1,0,
32,0.80338,1,1,2,1.928,1,1,0.093065,1,0,
32,0.5223,1,2,1,1.8984,1,2,0.44692,1,0,
32,0.66038,1,2,1,1.8507,1,1,0.15453,1,0,
32,0.56617,1,1,2,1.2568,1,2,0.27952,1,0,
32,0.52578,1,1,2,1.2855,1,2,0.28211,1,0,
32,0.79216,1,2,1,1.7799,1,1,0.15988,1,0,
32,0.58764,1,1,2,1.7014,1,1,0.091363,1,0,
32,0.65823,1,2,1,1.4925,1,1,0.14525,1,0,
32,0.55787,1,1,2,1.9677,1,2,0.26243,1,0,
32,0.7119,1,2,1,1.4762,1,2,0.47785,1,0,
32,0.4913,1,1,2,1.9949,1,1,0.089474,1,0,
32,0.36182,1,2,1,1.4906,1,2,0.46653,1,0,
32,0.80599,1,2,1,1.2406,1,2,0.46506,1,1,
32,1.3328,1,2,1,1.0089,1,1,0.15338,1,1,
32,0.51366,1,2,1,1.6716,1,1,0.14943,1,1,
32,1.1274,1,2,1,1.9048,1,2,0.44034,1,1,
32,0.89137,1,1,2,1.5724,1,1,0.086819,1,1,
32,0.49516,1,1,2,1.1555,1,2,0.25999,1,1,
32,0.23631,1,1,1,1.5024,0,2,0.46915,1,1,
32,1.1457,1,2,1,1.5677,1,1,0.15203,1,1,
32,0.34174,1,1,2,1.1883,1,2,0.25928,1,1,
32,0.41062,1,1,2,1.3242,1,1,0.092476,1,1,
32,0.34811,1,1,2,1.716,1,1,0.087093,1,1,
32,0.40278,1,1,2,1.5529,1,1,0.093577,1,1,
32,0.48767,1,1,2,1.1423,1,2,0.27152,1,1,
32,0.61439,1,2,1,1.3804,1,1,0.1535,1,1,
32,0.42226,1,2,1,1.3966,1,1,0.1476,1,1,
32,0.42551,1,1,2,1.5767,1,1,0.093371,1,1,
32,0.46816,1,2,2,1.0194,0,1,0.090638,1,1,
32,0.52342,1,2,1,1.5776,1,1,0.1539,1,1,
32,0.42776,1,1,2,1.9322,1,2,0.26866,1,1,
32,0.42536,1,1,2,1.1069,1,2,0.27808,1,1,
32,0.5278,1,2,1,1.7321,1,1,0.14533,1,1,
32,0.36829,1,1,2,1.9705,1,1,0.091354,1,1,
32,0.46693,1,2,1,1.6089,1,1,0.15915,1,1,
32,0.50322,1,2,1,1.7197,1,2,0.45526,1,1,
32,0.91099,1,1,2,1.3028,1,1,0.091963,1,1,
32,0.5682,1,2,1,1.459,1,1,0.14924,1,1,
32,0.72213,1,1,2,1.048,1,1,0.091486,1,1,
32,0.71895,1,2,1,1.3854,1,1,0.14881,1,1,
32,0.3975,1,1,2,1.3617,1,1,0.093532,1,1,
32,0.4137,1,2,1,1.2876,1,2,0.47384,1,1,
32,0.96294,1,2,1,1.8167,1,2,0.48253,1,1,
32,0.5566,1,2,1,1.4505,1,2,0.45503,1,1,
32,0.40214,1,2,1,1.8066,1,1,0.15189,1,1,
32,0.38928,1,1,2,1.7902,1,2,0.27422,1,1,
32,0.60563,1,2,1,1.283,1,2,0.47638,1,1,
32,0.62771,1,2,1,1.0683,1,2,0.43389,1,1,
32,0.49027,1,1,2,1.0549,1,2,0.2615,1,1,
32,0.53191,1,1,2,1.6375,1,1,0.095096,1,1,
32,0.48996,1,2,1,1.4243,1,2,0.48219,1,1,
32,0.37693,1,1,2,1.9055,1,2,0.26962,1,1,
32,0.49207,1,1,2,1.4173,1,2,0.28096,1,1,
32,0.45468,1,1,2,1.1541,1,1,0.094935,1,1,
32,0.70216,1,2,1,1.54,1,2,0.46715,1,1,
32,0.48,1,2,1,1.9371,1,1,0.15042,1,1,
32,0.44105,1,1,2,1.661,1,2,0.26816,1,1,
32,0.59964,1,2,1,1.3947,1,2,0.45474,1,1,
32,0.54831,1,2,1,1.259,1,1,0.15582,1,1,
32,0.4258,1,1,2,1.8479,1,2,0.27,1,1,
32,0.59106,1,2,1,1.9451,1,2,0.48248,1,1,
32,0.58593,1,2,1,1.377,1,2,0.45036,1,1,
32,1.1318,1,2,1,1.0673,1,1,0.14985,1,1,
32,0.63393,1,2,1,1.1816,1,1,0.15977,1,1,
32,0.78748,1,2,1,1.5757,1,1,0.15345,1,1,
32,0.77661,1,2,1,1.1859,1,2,0.47129,1,1,
32,0.6061,1,1,2,1.2914,1,2,0.25963,1,1,
32,0.35513,1,2,1,1.4617,1,2,0.45549,1,1,
32,0.77868,1,1,2,1.347,1,1,0.086044,1,1,
32,0.34429,1,1,2,1.3182,1,2,0.27623,1,1,
32,0.88888,1,1,2,1.4599,1,2,0.27752,1,1,
32,0.48322,1,1,2,1.2359,1,1,0.094827,1,1,
32,0.43877,1,1,2,1.0278,1,2,0.27613,1,1,
32,0.39262,1,1,2,1.6585,1,1,0.092361,1,1,
32,0.57714,1,2,1,1.1588,1,2,0.47699,1,1,
32,0.38272,1,1,2,1.8027,1,2,0.27009,1,1,
32,0.44994,1,2,1,1.4086,1,1,0.15192,1,1,
32,0.56728,1,2,1,1.3274,1,1,0.15813,1,1,
32,0.50031,1,2,1,1.746,1,2,0.4754,1,1,
32,0.58204,1,1,2,1.7464,1,1,0.087198,1,1,
32,1.2621,1,1,2,1.174,1,1,0.085559,1,1,
32,0.63182,1,2,1,1.1175,1,1,0.14506,1,1,
32,0.59327,1,2,1,1.174,1,2,0.43951,1,1,
32,0.38507,1,1,2,1.6274,1,2,0.26102,1,1,
32,0.4501,1,1,2,1.8419,1,1,0.09168,1,1,
32,0.59455,1,2,1,1.5101,1,2,0.43381,1,1,
32,0.38705,1,1,2,1.1658,1,1,0.090074,1,1,
32,0.47426,1,1,2,1.7143,1,1,0.092237,1,1,
32,0.65511,1,1,2,1.907,1,2,0.25933,1,1,
32,0.51028,1,2,1,1.2185,1,1,0.14808,1,1,
32,0.43611,1,1,2,1.871,1,2,0.26458,1,1,
32,0.78444,1,1,2,1.2118,1,1,0.087021,1,1,
32,0.43517,1,1,2,1.8367,1,2,0.26564,1,1,
32,0.44206,1,2,1,1.8593,1,1,0.15804,1,1,
32,0.90481,1,2,1,1.5234,1,2,0.44751,1,1,
32,0.84992,1,1,2,1.4774,1,1,0.093275,1,1,
32,0.70061,1,1,2,1.8899,1,1,0.090912,1,1,
32,0.75376,1,1,2,1.0651,1,2,0.2728,1,1,
32,0.5306,1,2,1,1.5095,1,2,0.47028,1,1,
32,0.40571,1,1,2,1.6208,1,1,0.093254,1,1,
32,0.47359,1,2,2,1.7336,0,2,0.28389,1,1,
32,0.49327,1,2,1,1.23,1,2,0.43927,1,1,
32,0.44845,1,1,2,1.0219,1,2,0.28042,1,1,
32,1.6211,1,2,1,1.139,1,2,0.44187,1,1,
32,0.52686,1,1,2,1.7695,1,2,0.25678,1,1,
32,0.59871,1,2,1,1.9698,1,2,0.43872,1,1,
32,0.57112,1,1,2,1.3868,1,1,0.086631,1,1,
32,0.63023,1,2,2,1.9934,0,2,0.25973,1,1,
32,0.88354,1,2,1,1.3264,1,1,0.1605,1,1,
32,0.6504,1,2,1,1.1372,1,1,0.14872,1,1,
32,0.48627,1,2,1,1.3848,1,1,0.16063,1,1,
32,0.44204,1,2,1,1.5626,1,1,0.1551,1,1,
32,0.52991,1,2,2,1.8798,1,2,0.26788,0,0,
32,0.3063,1,1,1,1.3736,1,2,0.47357,0,0,
32,0.34786,1,1,1,1.7667,1,1,0.15432,0,0,
32,0.3546,1,2,2,1.1681,1,2,0.26521,0,0,
32,0.3598,1,2,2,1.5197,1,2,0.28392,0,0,
32,0.3833,1,2,2,1.6275,1,1,0.086226,0,0,
32,0.30726,1,1,1,1.7139,1,2,0.44851,0,0,
32,0.2886,1,2,2,1.3064,1,1,0.094478,0,0,
32,0.27474,1,1,1,1.2637,1,1,0.15544,0,0,
32,0.35482,1,1,1,1.916,1,1,0.15593,0,0,
32,0.28421,1,1,1,1.615,1,1,0.15219,0,0,
32,0.38923,1,1,1,1.0932,1,1,0.14647,0,0,
32,0.31903,1,1,1,1.6277,1,1,0.16078,0,0,
32,0.4631,1,2,2,1.192,1,2,0.28329,0,0,
32,0.27998,1,1,1,1.777,1,2,0.45467,0,0,
32,0.29004,1,1,1,1.8645,1,2,0.47596,0,0,
32,0.5779,1,2,2,1.3336,1,1,0.088561,0,0,
32,0.4563,1,2,2,1.1354,1,2,0.26699,0,0,
32,0.30197,1,1,1,1.7655,1,1,0.15792,0,0,
32,0.97564,1,2,2,1.3186,1,2,0.25886,0,0,
32,0.38702,1,2,2,1.2524,1,2,0.28556,0,0,
32,0.41648,1,2,2,1.2001,1,1,0.085321,0,0,
32,0.30571,1,1,1,1.069,1,2,0.44729,0,0,
32,0.33998,1,2,2,1.5519,1,2,0.25735,0,0,
32,0.35657,1,1,1,1.4038,1,2,0.45494,0,0,
32,0.32065,1,1,1,1.7501,1,2,0.47349,0,0,
32,0.32882,1,2,2,1.4872,1,1,0.094768,0,0,
32,0.39868,1,1,1,1.3848,1,2,0.45971,0,0,
32,0.54639,1,1,1,1.0614,1,1,0.15809,0,0,
32,NaN,1,0,1,1.2137,NaN,2,0.46127,0,0,
32,0.28069,1,1,1,1.5439,1,2,0.47137,0,0,
32,0.39394,1,2,2,1.4106,1,2,0.25619,0,0,
32,0.22299,1,1,1,1.901,1,2,0.45673,0,0,
32,NaN,1,0,1,1.0563,NaN,1,0.14833,0,0,
32,0.47869,1,2,2,1.4435,1,2,0.26516,0,0,
32,0.48411,1,2,2,1.5378,1,1,0.095352,0,0,
32,0.25856,1,1,1,1.1341,1,2,0.44285,0,0,
32,0.6065,1,2,2,1.5409,1,1,0.090575,0,0,
32,0.62465,1,2,2,1.8574,1,2,0.26265,0,0,
32,0.44493,1,2,2,1.198,1,1,0.091063,0,0,
32,0.6387,1,2,2,1.1556,1,1,0.095696,0,0,
32,0.40657,1,2,2,1.0614,1,1,0.086612,0,0,
32,0.31597,1,1,1,1.6611,1,2,0.48256,0,0,
32,0.46782,1,2,2,1.0186,1,2,0.2596,0,0,
32,0.22313,1,1,1,1.2911,1,2,0.4417,0,0,
32,0.40424,1,2,2,1.9738,1,2,0.2757,0,0,
32,0.44242,1,2,2,1.7646,1,1,0.086575,0,0,
32,0.3178,1,1,1,1.2437,1,1,0.14547,0,0,
32,0.34126,1,1,1,1.6821,1,1,0.15547,0,0,
32,0.56635,1,2,2,1.1379,1,1,0.085576,0,0,
32,0.26145,1,1,1,1.6298,1,2,0.48426,0,0,
32,0.52902,1,1,1,1.857,1,1,0.15334,0,0,
32,0.72016,1,1,1,1.8998,1,1,0.15045,0,0,
32,0.35687,1,1,1,1.3484,1,2,0.46898,0,0,
32,0.44644,1,1,1,1.4863,1,1,0.16072,0,0,
32,NaN,1,0,2,1.6795,NaN,1,0.089145,0,0,
32,0.46309,1,1,1,1.7041,1,1,0.15608,0,0,
32,0.44367,1,2,2,1.4609,1,1,0.09143,0,0,
32,NaN,1,0,2,1.3643,NaN,2,0.27981,0,0,
32,0.33734,1,1,1,1.2803,1,1,0.15427,0,0,
32,0.58038,1,1,1,1.0762,1,2,0.45147,0,0,
32,NaN,1,0,1,1.4446,NaN,1,0.15894,0,0,
32,0.44241,1,1,1,1.1657,1,1,0.14791,0,0,
32,NaN,1,0,2,1.3987,NaN,2,0.28051,0,0,
32,1.0428,1,2,2,1.9206,1,1,0.095682,0,0,
32,0.74611,1,2,2,1.5113,1,2,0.26435,0,0,
32,0.59674,1,1,1,1.9141,1,1,0.15639,0,0,
32,0.59126,1,2,2,1.0919,1,2,0.27627,0,0,
32,0.41348,1,2,2,1.993,1,2,0.26844,0,0,
32,NaN,1,0,2,1.0964,NaN,1,0.090344,0,0,
32,0.39669,1,1,1,1.3131,1,1,0.16075,0,0,
32,0.35695,1,2,2,1.7854,1,2,0.2856,0,0,
32,0.55644,1,2,2,1.6024,1,1,0.092818,0,0,
32,0.28315,1,1,1,1.4659,1,2,0.45191,0,0,
32,0.84573,1,2,2,1.2981,1,1,0.085702,0,0,
32,0.41635,1,2,2,1.1332,1,1,0.091229,0,0,
32,0.36721,1,2,2,1.295,1,1,0.091037,0,0,
32,0.33586,1,2,2,1.1666,1,1,0.088868,0,0,
32,0.33099,1,1,1,1.3171,1,2,0.47844,0,0,
32,0.32012,1,2,2,1.1098,1,2,0.275,0,0,
32,0.26572,1,1,1,1.8321,1,1,0.15485,0,0,
32,0.37195,1,1,1,1.9716,1,1,0.1491,0,0,
32,0.34865,1,1,1,1.2183,1,2,0.43607,0,0,
32,0.29765,1,2,2,1.7061,1,2,0.26472,0,0,
32,0.40272,1,1,1,1.039,1,2,0.44418,0,0,
32,0.28206,1,2,2,1.6163,1,2,0.26632,0,0,
32,0.37938,1,2,2,1.6694,1,1,0.094061,0,0,
32,0.2893,1,1,1,1.0372,1,2,0.44039,0,0,
32,1.3813,1,1,1,1.0033,1,1,0.14675,0,0,
32,0.32912,1,2,2,1.1425,1,2,0.27136,0,0,
32,0.27576,1,1,1,1.8624,1,2,0.46343,0,0,
32,0.82106,1,1,1,1.276,1,1,0.14681,0,0,
32,NaN,1,0,2,1.5317,NaN,2,0.27535,0,0,
32,0.3845,1,2,2,1.5222,1,1,0.094012,0,0,
32,0.40657,1,1,1,1.5676,1,2,0.47308,0,0,
32,NaN,1,0,1,1.333,NaN,1,0.14857,0,0,
32,0.32116,1,1,1,1.4134,1,2,0.44829,0,0,
32,0.56863,1,2,2,1.4143,1,2,0.26138,0,0,
32,0.53095,1,2,2,1.9839,1,1,0.089817,0,0,
32,0.24248,1,1,2,1.0577,0,1,0.088576,0,0,
32,1.3368,1,1,1,1.2821,1,2,0.44609,0,1,
32,0.58108,1,2,2,1.2449,1,1,0.087612,0,1,
32,0.48755,1,2,2,1.2863,1,1,0.094615,0,1,
32,0.62443,1,2,2,1.9631,1,1,0.094715,0,1,
32,0.34091,1,2,2,1.2307,1,1,0.091446,0,1,
32,0.54583,1,2,2,1.5373,1,2,0.26691,0,1,
32,0.48693,1,2,2,1.205,1,1,0.091393,0,1,
32,0.33429,1,2,2,1.434,1,2,0.27639,0,1,
32,0.41446,1,1,1,1.1422,1,2,0.47923,0,1,
32,0.28163,1,1,1,1.3756,1,2,0.4367,0,1,
32,0.57344,1,2,2,1.7936,1,1,0.090768,0,1,
32,0.53683,1,1,1,1.8128,1,2,0.4542,0,1,
32,0.58841,1,2,2,1.9038,1,1,0.091589,0,1,
32,0.40836,1,2,2,1.5404,1,2,0.27293,0,1,
32,0.39108,1,1,1,1.8179,1,1,0.14791,0,1,
32,0.46702,1,1,1,1.7084,1,2,0.43757,0,1,
32,0.65732,1,2,2,1.0432,1,1,0.085405,0,1,
32,0.68308,1,2,2,1.1459,1,1,0.08589,0,1,
32,0.41654,1,2,2,1.2333,1,2,0.26561,0,1,
32,0.42557,1,1,1,1.2467,1,2,0.47293,0,1,
32,0.31125,1,1,1,1.1703,1,2,0.44936,0,1,
32,0.54037,1,2,2,1.2351,1,2,0.27484,0,1,
32,0.36728,1,1,1,1.2755,1,1,0.16156,0,1,
32,0.44348,1,1,1,1.9516,1,2,0.46582,0,1,
32,0.41571,1,2,2,1.3467,1,2,0.27233,0,1,
32,0.2618,1,1,1,1.2973,1,2,0.44405,0,1,
32,0.35562,1,1,1,1.4044,1,1,0.15692,0,1,
32,0.44034,1,2,2,1.3022,1,2,0.2835,0,1,
32,0.70781,1,2,2,1.7573,1,1,0.094183,0,1,
32,0.22829,1,1,2,1.3597,0,1,0.091377,0,1,
32,0.52216,1,2,2,1.1249,1,1,0.091986,0,1,
32,0.30712,1,2,2,1.6172,1,2,0.28435,0,1,
32,0.66539,1,1,1,1.3555,1,1,0.15148,0,1,
32,0.47561,1,2,2,1.3629,1,2,0.2646,0,1,
32,0.33704,1,1,1,1.0685,1,1,0.15499,0,1,
32,0.54595,1,1,1,1.8672,1,2,0.44729,0,1,
32,NaN,1,0,2,1.4579,NaN,2,0.27492,0,1,
32,0.8644,1,1,1,1.0776,1,1,0.1449,0,1,
32,0.50692,1,2,2,1.9049,1,1,0.095657,0,1,
32,0.45918,1,1,1,1.2817,1,1,0.14758,0,1,
32,0.56976,1,1,1,1.6139,1,2,0.46365,0,1,
32,0.44039,1,1,1,1.6619,1,2,0.44999,0,1,
32,0.52986,1,2,2,1.2,1,2,0.27797,0,1,
32,0.38246,1,1,1,1.96,1,1,0.14458,0,1,
32,0.45243,1,2,2,1.6651,1,1,0.085966,0,1,
32,0.58735,1,2,2,1.5413,1,1,0.094916,0,1,
32,0.39841,1,1,1,1.869,1,2,0.43673,0,1,
32,0.51827,1,1,1,1.557,1,1,0.14973,0,1,
32,0.47109,1,1,1,1.0214,1,1,0.15311,0,1,
32,0.40878,1,1,1,1.4827,1,2,0.44479,0,1,
32,0.50647,1,2,2,1.808,1,2,0.27243,0,1,
32,0.38713,1,2,2,1.736,1,1,0.093331,0,1,
32,0.69473,1,2,2,1.5723,1,2,0.27177,0,1,
32,0.67064,1,1,1,1.009,1,1,0.16043,0,1,
32,0.67109,1,1,1,1.7183,1,1,0.14657,0,1,
32,0.29633,1,1,1,1.4494,1,1,0.15119,0,1,
32,0.44918,1,1,1,1.6596,1,1,0.14884,0,1,
32,0.5017,1,2,2,1.7532,1,2,0.27416,0,1,
32,0.53629,1,1,1,1.8047,1,1,0.14472,0,1,
32,0.84408,1,2,2,1.0292,1,1,0.085935,0,1,
32,0.56985,1,1,1,1.7798,1,2,0.44871,0,1,
32,0.45429,1,1,1,1.5674,1,1,0.14575,0,1,
32,0.39962,1,1,1,1.0761,1,1,0.14696,0,1,
32,0.50586,1,2,2,1.2516,1,1,0.089031,0,1,
32,0.46783,1,2,2,1.1335,1,2,0.2571,0,1,
32,0.87022,1,2,2,1.5645,1,1,0.092565,0,1,
32,0.53437,1,2,2,1.541,1,2,0.27553,0,1,
32,0.4095,1,2,2,1.0689,1,2,0.2611,0,1,
32,0.47709,1,1,1,1.9884,1,1,0.14515,0,1,
32,0.40014,1,1,1,1.2511,1,1,0.15102,0,1,
32,0.50391,1,2,2,1.3155,1,2,0.26993,0,1,
32,0.33845,1,1,1,1.3007,1,1,0.14751,0,1,
32,0.65516,1,2,2,1.042,1,1,0.094289,0,1,
32,0.55285,1,2,2,1.5279,1,2,0.27416,0,1,
32,0.41239,1,1,1,1.256,1,2,0.43348,0,1,
32,0.62066,1,1,1,1.4087,1,2,0.4795,0,1,
32,0.48303,1,2,2,1.9475,1,2,0.26962,0,1,
32,0.69526,1,1,1,1.9193,1,2,0.43523,0,1,
32,NaN,1,0,2,1.1212,NaN,1,0.086357,0,1,
32,0.47724,1,1,1,1.5919,1,2,0.485,0,1,
32,0.42486,1,1,1,1.3597,1,2,0.47768,0,1,
32,0.43663,1,1,1,1.7193,1,2,0.46407,0,1,
32,0.31304,1,1,1,1.5236,1,1,0.14456,0,1,
32,0.59446,1,2,2,1.2608,1,1,0.088534,0,1,
32,0.62128,1,2,2,1.4931,1,2,0.26996,0,1,
32,0.41286,1,1,1,1.8558,1,2,0.43729,0,1,
32,0.38487,1,1,1,1.7244,1,1,0.1539,0,1,
32,0.42213,1,1,1,1.1991,1,1,0.14962,0,1,
32,0.41469,1,2,2,1.1573,1,2,0.26954,0,1,
32,0.51073,1,2,2,1.3705,1,2,0.27353,0,1,
32,0.37733,1,1,1,1.8623,1,2,0.43608,0,1,
32,0.63417,1,2,2,1.6848,1,2,0.25762,0,1,
32,0.81014,1,2,2,1.6342,1,1,0.088315,0,1,
32,0.30732,1,1,1,1.1413,1,2,0.4591,0,1,
32,0.70019,1,2,2,1.0793,1,1,0.091008,0,1,
32,0.70619,1,2,2,1.8761,1,1,0.087713,0,1,
32,0.63513,1,2,2,1.4204,1,2,0.28428,0,1,
32,0.76644,1,1,1,1.4877,1,1,0.15848,0,1,
32,0.54479,1,1,1,1.4603,1,1,0.15168,0,1,
32,0.84564,1,1,1,1.5157,1,2,0.48409,0,1,
32,NaN,1,0,2,1.61,NaN,2,0.26647,1,0,
32,1.8257,1,1,2,1.3837,1,2,0.28502,1,0,
32,0.59271,1,2,1,1.0306,1,2,0.48107,1,0,
32,1.0933,1,2,1,1.8576,1,1,0.1542,1,0,
32,0.44479,1,1,2,1.6035,1,1,0.086312,1,0,
32,0.38469,1,2,1,1.8478,1,2,0.45099,1,0,
32,0.29532,1,1,1,1.5046,0,2,0.44629,1,0,
32,0.75766,1,1,2,1.0079,1,1,0.087961,1,0,
32,0.37971,1,2,1,1.9191,1,2,0.44376,1,0,
32,0.54195,1,1,2,1.4107,1,1,0.08532,1,0,
32,0.35729,1,2,1,1.7324,1,2,0.47915,1,0,
32,0.76879,1,2,1,1.1511,1,1,0.15184,1,0,
32,0.63575,1,2,1,1.8152,1,2,0.46211,1,0,
32,0.5672,1,2,1,1.9096,1,1,0.14944,1,0,
32,0.56641,1,1,2,1.7779,1,2,0.28695,1,0,
32,0.8146,1,2,1,1.7571,1,1,0.1614,1,0,
32,0.5118,1,1,2,1.4052,1,1,0.095326,1,0,
32,0.56121,1,1,2,1.7019,1,2,0.27632,1,0,
32,0.49612,1,1,2,1.5655,1,2,0.27824,1,0,
32,1.4032,1,2,1,1.5847,1,1,0.14976,1,0,
32,0.35347,1,1,2,1.3449,1,1,0.090599,1,0,
32,0.50018,1,2,1,1.7042,1,2,0.44616,1,0,
32,0.45262,1,1,2,1.1609,1,1,0.092662,1,0,
32,0.97706,1,2,1,1.0015,1,1,0.15762,1,0,
32,0.74004,1,2,1,1.562,1,2,0.43639,1,0,
32,0.38903,1,1,2,1.5465,1,2,0.26253,1,0,
32,NaN,1,0,2,1.5508,NaN,1,0.087334,1,0,
32,0.74905,1,1,2,1.6945,1,2,0.27499,1,0,
32,0.53091,1,2,1,1.9275,1,2,0.46998,1,0,
32,0.66793,1,1,2,1.9442,1,2,0.28172,1,0,
32,0.50295,1,2,1,1.9033,1,1,0.14443,1,0,
32,0.93667,1,1,1,1.6041,0,1,0.1475,1,0,
32,0.37434,1,1,2,1.9262,1,1,0.090041,1,0,
32,0.66337,1,1,1,1.1169,0,1,0.15053,1,0,
32,1.753,1,1,1,1.3408,0,1,0.14987,1,0,
32,0.53668,1,1,2,1.0367,1,2,0.25781,1,0,
32,0.42021,1,1,2,1.5384,1,1,0.093122,1,0,
32,0.63327,1,2,1,1.7372,1,2,0.45285,1,0,
32,0.45721,1,2,1,1.1812,1,2,0.46723,1,0,
32,0.5958,1,1,2,1.4262,1,1,0.090895,1,0,
32,0.51161,1,1,2,1.0982,1,1,0.085814,1,0,
32,0.73577,1,2,1,1.3032,1,1,0.1493,1,0,
32,0.64994,1,2,1,1.7801,1,1,0.16105,1,0,
32,0.60475,1,2,1,1.537,1,1,0.16043,1,0,
32,0.53555,1,2,1,1.7691,1,1,0.15052,1,0,
32,1.0566,1,2,1,1.6389,1,2,0.4642,1,0,
32,0.58954,1,2,1,1.8931,1,2,0.46126,1,0,
32,0.59015,1,1,2,1.0607,1,2,0.2816,1,0,
32,NaN,1,0,1,1.1758,NaN,1,0.16091,1,0,
32,0.64449,1,1,2,1.4163,1,2,0.25816,1,0,
32,0.68691,1,1,2,1.7398,1,2,0.28347,1,0,
32,0.46225,1,1,2,1.893,1,2,0.27304,1,0,
32,NaN,1,0,2,1.0259,NaN,1,0.087237,1,0,
32,0.80638,1,2,1,1.1376,1,1,0.14783,1,0,
32,0.40115,1,1,2,1.4241,1,2,0.27758,1,0,
32,0.87525,1,1,2,1.7646,1,1,0.091374,1,0,
32,0.59349,1,2,1,1.5244,1,2,0.46252,1,0,
32,1.8569,1,1,1,1.7545,0,1,0.16111,1,0,
32,0.56643,1,2,1,1.1698,1,2,0.46228,1,0,
32,0.54749,1,1,2,1.6727,1,1,0.086293,1,0,
32,0.71839,1,2,1,1.6187,1,1,0.1469,1,0,
32,0.91714,1,2,1,1.0068,1,1,0.14582,1,0,
32,0.58454,1,2,1,1.7402,1,1,0.14656,1,0,
32,0.55077,1,2,1,1.9917,1,1,0.1557,1,0,
32,0.53673,1,1,2,1.1282,1,1,0.091828,1,0,
32,0.59075,1,2,1,1.3606,1,2,0.45128,1,0,
32,0.76422,1,1,2,1.1911,1,1,0.086922,1,0,
32,0.72139,1,1,2,1.7144,1,2,0.26766,1,0,
32,0.73068,1,1,2,1.1779,1,1,0.093537,1,0,
32,0.48176,1,1,2,1.9868,1,1,0.089325,1,0,
32,0.39191,1,1,2,1.017,1,2,0.27917,1,0,
32,0.44661,1,1,2,1.0398,1,2,0.26477,1,0,
32,0.70659,1,2,1,1.8043,1,1,0.15513,1,0,
32,0.43219,1,1,2,1.8598,1,1,0.094458,1,0,
32,0.49275,1,1,2,1.5663,1,2,0.26217,1,0,
32,0.54074,1,1,2,1.7541,1,1,0.090158,1,0,
32,0.28259,1,1,1,1.5195,0,2,0.438,1,0,
32,1.3303,1,2,1,1.5859,1,2,0.43897,1,0,
32,1.162,1,1,1,1.1907,0,2,0.43553,1,0,
32,0.56021,1,1,2,1.5034,1,2,0.25827,1,0,
32,0.37959,1,1,2,1.0509,1,2,0.27508,1,0,
32,0.5554,1,1,1,1.0561,0,1,0.1511,1,0,
32,0.48148,1,2,1,1.3352,1,2,0.46532,1,0,
32,0.54468,1,2,1,1.6309,1,2,0.47714,1,0,
32,0.28505,1,1,2,1.892,1,2,0.27944,1,0,
32,0.44228,1,2,2,1.6734,0,1,0.095454,1,0,
32,0.86737,1,1,2,1.6853,1,1,0.093339,1,0,
32,0.33474,1,1,1,1.6957,0,2,0.4815,1,0,
32,0.52503,1,2,1,1.7998,1,2,0.47074,1,0,
32,0.48943,1,1,2,1.6606,1,2,0.2635,1,0,
32,1.0242,1,1,1,1.5199,0,1,0.15655,1,0,
32,0.6609,1,1,2,1.3317,1,1,0.092397,1,0,
32,0.55094,1,1,2,1.9342,1,1,0.09325,1,0,
32,0.40436,1,1,2,1.2465,1,1,0.092971,1,0,
32,0.34869,1,1,2,1.5112,1,2,0.26548,1,0,
32,0.3063,1,1,2,1.7403,1,2,0.27141,1,0,
32,0.34765,1,1,2,1.2542,1,2,0.27974,1,0,
32,0.67975,1,2,1,1.8456,1,1,0.15394,1,0,
32,0.65272,1,2,1,1.5382,1,2,0.48252,1,0,
32,0.43721,1,2,1,1.9101,1,2,0.44096,1,0,
32,0.74973,1,1,2,1.4547,1,2,0.27567,1,1,
32,0.44911,1,1,2,1.029,1,1,0.089712,1,1,
32,0.40479,1,1,2,1.6371,1,1,0.091541,1,1,
32,0.5549,1,1,2,1.0595,1,1,0.092866,1,1,
32,0.42416,1,1,2,1.1692,1,1,0.088338,1,1,
32,0.34412,1,1,2,1.6847,1,1,0.08573,1,1,
32,0.53757,1,1,2,1.5546,1,1,0.09392,1,1,
32,0.78042,1,2,1,1.006,1,2,0.45111,1,1,
32,0.27081,1,1,1,1.2881,0,2,0.46654,1,1,
32,0.43969,1,2,1,1.3766,1,2,0.4793,1,1,
32,0.80007,1,2,1,1.1465,1,1,0.14873,1,1,
32,0.6338,1,2,1,1.0745,1,2,0.48497,1,1,
32,0.6393,1,1,2,1.4607,1,1,0.093908,1,1,
32,0.71759,1,1,2,1.3704,1,1,0.093444,1,1,
32,0.39276,1,1,2,1.8246,1,1,0.092006,1,1,
32,1.1157,1,2,1,1.5375,1,1,0.15342,1,1,
32,0.54764,1,2,1,1.8175,1,2,0.45202,1,1,
32,1.1097,1,2,1,1.4604,1,1,0.15842,1,1,
32,0.40275,1,1,2,1.014,1,1,0.091359,1,1,
32,0.43621,1,1,2,1.005,1,2,0.28002,1,1,
32,0.433,1,1,2,1.1662,1,2,0.28674,1,1,
32,1.0817,1,1,2,1.3659,1,1,0.093411,1,1,
32,0.45353,1,1,2,1.7182,1,2,0.28233,1,1,
32,0.37123,1,1,2,1.1594,1,1,0.090212,1,1,
32,0.80049,1,2,1,1.2788,1,1,0.15936,1,1,
32,NaN,1,0,1,1.6449,NaN,2,0.44928,1,1,
32,1.0683,1,2,2,1.2872,0,1,0.087347,1,1,
32,NaN,1,0,1,1.3219,NaN,1,0.15255,1,1,
32,0.63749,1,2,1,1.1554,1,2,0.43389,1,1,
32,0.90544,1,1,2,1.3877,1,1,0.093835,1,1,
32,0.46046,1,2,1,1.8957,1,1,0.14856,1,1,
32,0.70528,1,1,2,1.8878,1,1,0.092227,1,1,
32,0.5368,1,2,1,1.3936,1,2,0.47371,1,1,
32,0.42556,1,1,2,1.6755,1,2,0.27682,1,1,
32,0.48105,1,2,2,1.2522,0,2,0.27583,1,1,
32,0.78709,1,2,1,1.95,1,2,0.44431,1,1,
32,0.39489,1,1,2,1.6247,1,1,0.090127,1,1,
32,0.50256,1,2,1,1.2069,1,2,0.48155,1,1,
32,0.66378,1,2,1,1.1097,1,2,0.4445,1,1,
32,1.1256,1,2,1,1.5658,1,1,0.14762,1,1,
32,0.66501,1,2,1,1.2743,1,2,0.44611,1,1,
32,0.96008,1,1,2,1.0712,1,2,0.27983,1,1,
32,0.47725,1,2,1,1.1584,1,2,0.44915,1,1,
32,0.47898,1,1,2,1.0495,1,2,0.27432,1,1,
32,0.73334,1,2,2,1.6809,0,1,0.087133,1,1,
32,0.71301,1,1,1,1.7818,0,1,0.14557,1,1,
32,0.57648,1,1,2,1.8074,1,2,0.26519,1,1,
32,0.75468,1,1,2,1.2651,1,2,0.26281,1,1,
32,0.77821,1,2,1,1.8959,1,1,0.16001,1,1,
32,0.56469,1,1,2,1.608,1,2,0.28507,1,1,
32,0.48705,1,1,2,1.0144,1,2,0.25686,1,1,
32,0.35714,1,1,2,1.344,1,2,0.27402,1,1,
32,0.43464,1,1,2,1.5337,1,2,0.25722,1,1,
32,0.75367,1,2,1,1.6278,1,1,0.15134,1,1,
32,0.72768,1,1,2,1.4467,1,1,0.090586,1,1,
32,0.63063,1,1,2,1.8111,1,2,0.28192,1,1,
32,0.48119,1,1,2,1.1448,1,2,0.27502,1,1,
32,0.45627,1,1,2,1.9748,1,2,0.26355,1,1,
32,0.78727,1,2,1,1.8338,1,2,0.47979,1,1,
32,0.56334,1,1,2,1.3401,1,2,0.27956,1,1,
32,0.40674,1,2,1,1.6162,1,1,0.15376,1,1,
32,0.52081,1,1,2,1.3038,1,1,0.094589,1,1,
32,0.98936,1,1,2,1.0892,1,2,0.267,1,1,
32,0.95915,1,2,1,1.5215,1,2,0.44948,1,1,
32,0.26161,1,1,1,1.8253,0,2,0.46426,1,1,
32,0.75086,1,1,2,1.7639,1,2,0.25849,1,1,
32,0.86726,1,2,2,1.9476,0,2,0.26723,1,1,
32,1.5059,1,1,1,1.3335,0,1,0.14725,1,1,
32,0.30054,1,2,1,1.3897,1,2,0.47462,1,1,
32,0.21912,1,1,1,1.1504,0,2,0.46988,1,1,
32,NaN,1,0,1,1.3337,NaN,2,0.46725,1,1,
32,NaN,1,0,2,1.5537,NaN,1,0.094773,1,1,
32,0.59207,1,2,1,1.5503,1,2,0.47519,1,1,
32,0.3712,1,2,1,1.1604,1,2,0.46053,1,1,
32,NaN,1,0,2,1.1171,NaN,1,0.08546,1,1,
32,0.55016,1,2,1,1.3986,1,1,0.14569,1,1,
32,0.42668,1,2,1,1.8314,1,1,0.15291,1,1,
32,0.39321,1,2,2,1.185,0,1,0.095194,1,1,
32,NaN,1,0,1,1.5008,NaN,2,0.4764,1,1,
32,0.64358,1,1,2,1.1263,1,2,0.28501,1,1,
32,0.36863,1,2,1,1.8646,1,1,0.1612,1,1,
32,0.95294,1,1,1,1.7666,0,1,0.15043,1,1,
32,0.75396,1,2,1,1.5644,1,1,0.14954,1,1,
32,0.65237,1,2,1,1.3896,1,1,0.15771,1,1,
32,0.51483,1,1,2,1.4901,1,1,0.087417,1,1,
32,1.2223,1,2,1,1.8869,1,1,0.16094,1,1,
32,1.189,1,1,2,1.905,1,2,0.28485,1,1,
32,NaN,1,0,1,1.4984,NaN,1,0.15031,1,1,
32,0.70822,1,2,1,1.5292,1,1,0.14995,1,1,
32,0.44178,1,1,2,1.9097,1,2,0.27717,1,1,
32,0.44879,1,2,1,1.5786,1,1,0.15651,1,1,
32,0.56983,1,2,1,1.7758,1,1,0.15802,1,1,
32,0.83781,1,1,1,1.6614,0,1,0.15431,1,1,
32,NaN,1,0,1,1.4697,NaN,2,0.4372,1,1,
32,NaN,1,0,1,1.2198,NaN,2,0.4611,1,1,
32,0.50975,1,1,2,1.6026,1,1,0.085731,1,1,
32,NaN,1,0,2,1.1843,NaN,2,0.27925,1,1,
32,0.5863,1,1,2,1.1975,1,1,0.092038,1,1,
32,0.80476,1,1,1,1.862,0,1,0.15441,1,1,
32,NaN,1,0,1,1.1256,NaN,2,0.44378,1,1,
32,0.36776,1,1,1,1.8531,1,2,0.46152,0,0,
32,0.34318,1,1,1,1.4291,1,1,0.14756,0,0,
32,0.31725,1,2,2,1.9257,1,2,0.28529,0,0,
32,0.35419,1,2,2,1.3731,1,2,0.27149,0,0,
32,0.25945,1,1,1,1.6982,1,1,0.14877,0,0,
32,0.25967,1,1,1,1.5886,1,2,0.44389,0,0,
32,0.32257,1,1,1,1.1009,1,1,0.16082,0,0,
32,0.32194,1,2,2,1.4124,1,2,0.27706,0,0,
32,0.72583,1,2,2,1.9247,1,1,0.09255,0,0,
32,0.33927,1,1,1,1.0556,1,1,0.15543,0,0,
32,0.30405,1,1,1,1.384,1,2,0.4729,0,0,
32,0.26508,1,1,1,1.2406,1,2,0.46221,0,0,
32,0.44505,1,2,2,1.2278,1,1,0.090395,0,0,
32,0.35546,1,2,2,1.3571,1,1,0.094389,0,0,
32,0.27212,1,1,1,1.9241,1,2,0.45234,0,0,
32,0.3369,1,1,1,1.5025,1,1,0.14819,0,0,
32,0.31461,1,1,1,1.8032,1,1,0.14886,0,0,
32,0.35238,1,1,1,1.3503,1,2,0.4798,0,0,
32,0.45568,1,2,2,1.4587,1,2,0.27748,0,0,
32,0.24222,1,1,1,1.9511,1,1,0.15898,0,0,
32,0.57141,1,2,2,1.133,1,1,0.089108,0,0,
32,0.37264,1,2,2,1.0703,1,1,0.091756,0,0,
32,0.24085,1,1,1,1.7061,1,2,0.43391,0,0,
32,0.34335,1,1,1,1.9317,1,1,0.16021,0,0,
32,0.43782,1,2,2,1.1089,1,2,0.27014,0,0,
32,0.39573,1,2,2,1.6517,1,2,0.27171,0,0,
32,0.28809,1,1,1,1.1461,1,1,0.1574,0,0,
32,0.45816,1,2,2,1.694,1,1,0.088674,0,0,
32,0.4116,1,1,1,1.6256,1,1,0.15488,0,0,
32,0.5178,1,1,1,1.0437,1,1,0.14964,0,0,
32,0.39838,1,2,2,1.7979,1,1,0.088418,0,0,
32,0.23168,1,1,1,1.9862,1,2,0.46572,0,0,
32,0.29629,1,2,2,1.4367,1,2,0.26902,0,0,
32,0.40253,1,2,2,1.3447,1,1,0.086323,0,0,
32,0.34793,1,2,2,1.0488,1,2,0.26297,0,0,
32,0.27519,1,1,1,1.2252,1,2,0.48351,0,0,
32,0.26499,1,2,2,1.581,1,1,0.092455,0,0,
32,0.33229,1,2,2,1.6014,1,2,0.27611,0,0,
32,0.2612,1,1,1,1.2525,1,2,0.44887,0,0,
32,0.32711,1,1,1,1.6543,1,1,0.14444,0,0,
32,0.27625,1,1,1,1.0601,1,2,0.46168,0,0,
32,0.31381,1,1,1,1.9405,1,2,0.43415,0,0,
32,0.3396,1,1,1,1.0925,1,2,0.44572,0,0,
32,0.22342,1,1,1,1.334,1,2,0.44193,0,0,
32,0.38457,1,1,1,1.651,1,1,0.15176,0,0,
32,0.38401,1,2,2,1.5039,1,2,0.2796,0,0,
32,0.34105,1,1,1,1.5309,1,2,0.46475,0,0,
32,0.30586,1,2,2,1.3791,1,2,0.26536,0,0,
32,0.4011,1,2,2,1.7689,1,2,0.26467,0,0,
32,NaN,1,0,2,1.2825,NaN,1,0.086079,0,0,
32,0.64803,1,2,2,1.6493,1,1,0.087012,0,0,
32,0.5398,1,2,2,1.9222,1,1,0.092693,0,0,
32,0.42679,1,2,2,1.3307,1,2,0.25857,0,0,
32,0.42339,1,2,2,1.8134,1,2,0.28444,0,0,
32,0.47297,1,2,2,1.7876,1,2,0.2689,0,0,
32,0.55213,1,1,1,1.1243,1,1,0.14544,0,0,
32,0.4643,1,2,2,1.1574,1,1,0.091115,0,0,
32,0.28902,1,1,1,1.415,1,2,0.47578,0,0,
32,0.36226,1,2,2,1.6873,1,1,0.088788,0,0,
32,0.8565,1,2,2,1.6577,1,2,0.27996,0,0,
32,0.53081,1,2,2,1.68,1,1,0.092555,0,0,
32,0.44313,1,1,1,1.0094,1,2,0.46277,0,0,
32,0.37531,1,1,1,1.1286,1,2,0.45151,0,0,
32,0.77999,1,1,1,1.7639,1,2,0.45239,0,0,
32,0.44559,1,2,2,1.8419,1,1,0.089619,0,0,
32,0.41641,1,1,1,1.7469,1,2,0.45391,0,0,
32,0.61318,1,1,1,1.9445,1,1,0.14779,0,0,
32,0.44722,1,1,1,1.9197,1,1,0.15259,0,0,
32,0.36518,1,2,2,1.2231,1,1,0.085699,0,0,
32,0.37337,1,2,2,1.5098,1,1,0.091039,0,0,
32,0.39962,1,2,2,1.7877,1,2,0.25737,0,0,
32,0.3486,1,2,2,1.5225,1,2,0.28296,0,0,
32,0.73839,1,1,1,1.6174,1,1,0.15911,0,0,
32,0.32451,1,2,2,1.5582,1,1,0.088695,0,0,
32,0.47024,1,1,1,1.731,1,1,0.16121,0,0,
32,NaN,1,0,1,1.0634,NaN,1,0.16086,0,0,
32,0.40999,1,2,2,1.4928,1,2,0.28677,0,0,
32,0.55697,1,2,2,1.2299,1,1,0.08687,0,0,
32,0.37546,1,2,2,1.3374,1,1,0.085336,0,0,
32,0.35198,1,1,1,1.5516,1,1,0.14829,0,0,
32,0.3547,1,1,1,1.7437,1,1,0.14997,0,0,
32,0.42237,1,2,2,1.4123,1,1,0.08763,0,0,
32,0.35239,1,2,2,1.5076,1,2,0.27919,0,0,
32,0.40753,1,2,2,1.129,1,1,0.087555,0,0,
32,0.29648,1,2,2,1.2148,1,2,0.26948,0,0,
32,0.52137,1,2,2,1.2928,1,2,0.26368,0,0,
32,0.43053,1,1,1,1.45,1,1,0.14996,0,0,
32,0.39632,1,2,2,1.2403,1,2,0.28396,0,0,
32,0.29866,1,1,1,1.2633,1,2,0.43297,0,0,
32,0.52932,1,2,1,1.8916,0,2,0.43897,0,0,
32,0.24767,1,2,2,1.5861,1,1,0.089205,0,0,
32,0.37608,1,2,2,1.9387,1,2,0.28193,0,0,
32,0.26628,1,1,1,1.6181,1,2,0.44308,0,0,
32,0.89304,1,1,1,1.2507,1,1,0.16049,0,0,
32,0.29329,1,1,1,1.1025,1,2,0.4834,0,0,
32,0.36304,1,2,2,1.5464,1,1,0.089073,0,0,
32,0.30057,1,1,1,1.4426,1,2,0.48424,0,0,
32,0.27482,1,1,1,1.6915,1,1,0.14615,0,0,
32,0.30761,1,1,1,1.7594,1,1,0.15731,0,0,
32,0.36041,1,2,2,1.3994,1,2,0.27357,0,0,
32,NaN,1,0,2,1.2021,NaN,1,0.094315,0,1,
32,0.52284,1,1,1,1.4924,1,1,0.14919,0,1,
32,0.49896,1,2,2,1.7294,1,2,0.26297,0,1,
32,0.34739,1,1,1,1.955,1,1,0.15859,0,1,
32,0.50738,1,1,1,1.7624,1,1,0.15156,0,1,
32,0.70573,1,1,1,1.0801,1,1,0.15278,0,1,
32,0.38402,1,1,1,1.9382,1,1,0.14722,0,1,
32,0.31691,1,1,1,1.9745,1,2,0.43994,0,1,
32,0.28011,1,1,1,1.6071,1,2,0.47991,0,1,
32,0.39827,1,1,1,1.9575,1,2,0.48468,0,1,
32,0.30473,1,1,2,1.3307,0,1,0.089225,0,1,
32,0.42901,1,1,1,1.9012,1,1,0.1585,0,1,
32,NaN,1,0,2,1.0004,NaN,2,0.28563,0,1,
32,0.44252,1,1,1,1.4833,1,2,0.4792,0,1,
32,0.47572,1,1,1,1.1475,1,2,0.47629,0,1,
32,0.41472,1,1,1,1.315,1,1,0.15591,0,1,
32,NaN,1,0,2,1.1714,NaN,1,0.087011,0,1,
32,0.41057,1,1,1,1.5929,1,1,0.14811,0,1,
32,0.44345,1,1,1,1.6576,1,2,0.4545,0,1,
32,NaN,1,0,2,1.349,NaN,2,0.25666,0,1,
32,0.44222,1,1,1,1.0537,1,2,0.44592,0,1,
32,0.64439,1,1,1,1.0472,1,2,0.48398,0,1,
32,NaN,1,0,2,1.0559,NaN,2,0.2653,0,1,
32,0.3276,1,1,1,1.0715,1,2,0.46175,0,1,
32,NaN,1,0,2,1.0157,NaN,1,0.091531,0,1,
32,0.49456,1,2,2,1.9737,1,2,0.28391,0,1,
32,0.60202,1,2,2,1.7348,1,2,0.26786,0,1,
32,0.67599,1,2,2,1.7524,1,2,0.27717,0,1,
32,0.84504,1,2,2,1.0333,1,1,0.087339,0,1,
32,0.55353,1,2,2,1.1176,1,2,0.25778,0,1,
32,0.35074,1,1,1,1.2613,1,2,0.46445,0,1,
32,0.32284,1,1,1,1.8934,1,2,0.46797,0,1,
32,0.60113,1,1,1,1.9721,1,1,0.14912,0,1,
32,0.42499,1,1,1,1.9941,1,1,0.15391,0,1,
32,0.32434,1,1,1,1.3468,1,2,0.44836,0,1,
32,0.30005,1,1,2,1.2923,0,2,0.28092,0,1,
32,0.36817,1,2,2,1.1872,1,2,0.26692,0,1,
32,0.46419,1,2,2,1.7431,1,1,0.092454,0,1,
32,0.34098,1,2,2,1.718,1,1,0.09176,0,1,
32,0.44849,1,2,2,1.1889,1,2,0.28598,0,1,
32,0.30741,1,2,1,1.4339,0,1,0.14748,0,1,
32,NaN,1,0,2,1.0456,NaN,1,0.091389,0,1,
32,0.58369,1,1,1,1.6555,1,1,0.14551,0,1,
32,0.59828,1,2,2,1.781,1,2,0.27247,0,1,
32,0.42652,1,1,1,1.8629,1,2,0.47657,0,1,
32,0.58098,1,2,2,1.7854,1,1,0.085708,0,1,
32,0.78475,1,2,2,1.4335,1,1,0.088604,0,1,
32,0.3749,1,1,1,1.3478,1,1,0.15637,0,1,
32,0.95705,1,2,2,1.0554,1,1,0.094189,0,1,
32,0.39547,1,1,1,1.8194,1,1,0.15267,0,1,
32,0.47693,1,1,1,1.106,1,2,0.4848,0,1,
32,0.59426,1,1,2,1.0061,0,2,0.26887,0,1,
32,0.57935,1,2,2,1.275,1,2,0.26392,0,1,
32,0.37571,1,2,2,1.9428,1,2,0.27024,0,1,
32,0.42449,1,2,2,1.6743,1,1,0.086901,0,1,
32,0.71669,1,1,1,1.3857,1,1,0.14677,0,1,
32,0.53185,1,2,2,1.8569,1,1,0.087984,0,1,
32,0.53849,1,2,2,1.6748,1,1,0.093077,0,1,
32,0.46838,1,1,1,1.6081,1,1,0.15458,0,1,
32,0.46019,1,2,2,1.4394,1,1,0.095352,0,1,
32,0.54126,1,2,2,1.9613,1,2,0.27975,0,1,
32,0.40091,1,1,1,1.8229,1,1,0.15394,0,1,
32,0.50511,1,2,2,1.0105,1,1,0.089845,0,1,
32,0.37251,1,1,1,1.1416,1,2,0.44686,0,1,
32,0.4725,1,1,1,1.4828,1,2,0.47145,0,1,
32,0.32977,1,1,1,1.5806,1,1,0.14569,0,1,
32,0.40553,1,1,1,1.293,1,1,0.14589,0,1,
32,0.35518,1,1,1,1.4389,1,2,0.47051,0,1,
32,0.48926,1,2,2,1.3983,1,2,0.26658,0,1,
32,0.46789,1,2,2,1.1373,1,2,0.27361,0,1,
32,0.29172,1,1,1,1.9528,1,2,0.44747,0,1,
32,0.39972,1,1,1,1.36,1,1,0.15645,0,1,
32,0.49252,1,2,2,1.837,1,1,0.088922,0,1,
32,0.52376,1,2,2,1.0413,1,1,0.092663,0,1,
32,0.46304,1,2,2,1.4238,1,1,0.095664,0,1,
32,NaN,1,0,2,1.0756,NaN,1,0.086133,0,1,
32,0.68847,1,2,2,1.3138,1,2,0.27009,0,1,
32,0.51504,1,1,1,1.946,1,1,0.14568,0,1,
32,0.49649,1,2,2,1.8545,1,1,0.092735,0,1,
32,0.41417,1,2,2,1.1735,1,1,0.094752,0,1,
32,0.40161,1,2,2,1.5359,1,2,0.25848,0,1,
32,1.0054,1,1,1,1.2949,1,2,0.45901,0,1,
32,0.40573,1,1,1,1.9029,1,2,0.46074,0,1,
32,0.44387,1,1,1,1.0814,1,2,0.46782,0,1,
32,0.59485,1,2,2,1.7875,1,2,0.2649,0,1,
32,0.37411,1,1,1,1.1744,1,2,0.46336,0,1,
32,0.70004,1,2,2,1.72,1,1,0.087279,0,1,
32,0.49145,1,2,2,1.232,1,2,0.27602,0,1,
32,0.46433,1,1,1,1.2071,1,2,0.46853,0,1,
32,0.69383,1,2,1,1.2161,0,1,0.15194,0,1,
32,0.35993,1,1,1,1.9767,1,2,0.44025,0,1,
32,1.4535,1,1,1,1.3818,1,1,0.15128,0,1,
32,0.72003,1,2,2,1.6353,1,2,0.2741,0,1,
32,0.81694,1,1,1,1.0466,1,1,0.14956,0,1,
32,0.41562,1,2,2,1.2321,1,1,0.093869,0,1,
32,0.46264,1,1,1,1.8748,1,1,0.14616,0,1,
32,0.55999,1,2,2,1.4601,1,2,0.26343,0,1,
32,0.5913,1,2,2,1.0031,1,2,0.28509,0,1,
32,0.70952,1,2,2,1.4649,1,1,0.091991,0,1,
32,0.40373,1,1,1,1.8241,1,2,0.47148,0,1,
32,0.53387,1,2,2,1.0905,0,2,0.27165,1,0,
32,0.58882,1,2,1,1.0082,1,1,0.15644,1,0,
32,0.38878,1,1,2,1.3728,1,2,0.26369,1,0,
32,0.57532,1,2,1,1.7883,1,2,0.43808,1,0,
32,0.63092,1,1,2,1.4473,1,1,0.09088,1,0,
32,0.56439,1,1,2,1.0996,1,1,0.087484,1,0,
32,0.47278,1,1,2,1.8058,1,2,0.26529,1,0,
32,0.66993,1,2,1,1.6595,1,2,0.48359,1,0,
32,0.48051,1,2,1,1.4524,1,1,0.14933,1,0,
32,0.42144,1,1,2,1.5334,1,1,0.095125,1,0,
32,0.441,1,1,2,1.5267,1,1,0.089436,1,0,
32,0.48497,1,2,1,1.6297,1,2,0.43285,1,0,
32,0.37582,1,2,1,1.6466,1,2,0.44805,1,0,
32,0.40904,1,2,1,1.1918,1,1,0.14671,1,0,
32,0.39632,1,2,1,1.8017,1,2,0.48476,1,0,
32,0.45168,1,2,1,1.1966,1,2,0.45534,1,0,
32,0.50115,1,2,1,1.4113,1,1,0.15345,1,0,
32,0.71185,1,1,2,1.2357,1,1,0.087923,1,0,
32,1.0745,1,1,2,1.2722,1,2,0.28329,1,0,
32,0.38756,1,2,1,1.0087,1,1,0.14583,1,0,
32,0.41309,1,1,2,1.9283,1,2,0.28137,1,0,
32,0.56576,1,2,1,1.5202,1,2,0.45413,1,0,
32,0.17163,1,1,2,1.4641,1,2,0.28453,1,0,
32,0.39,1,2,1,1.5235,1,1,0.15314,1,0,
32,0.26257,1,1,1,1.3368,0,1,0.15931,1,0,
32,0.52635,1,2,1,1.3324,1,2,0.45026,1,0,
32,0.4252,1,2,2,1.9883,0,1,0.089329,1,0,
32,0.69617,1,1,2,1.4737,1,2,0.27416,1,0,
32,0.66491,1,1,2,1.7469,1,1,0.094746,1,0,
32,0.48116,1,1,2,1.67,1,2,0.25987,1,0,
32,0.79363,1,2,1,1.7956,1,2,0.43444,1,0,
32,0.86203,1,2,1,1.2725,1,2,0.45276,1,0,
32,0.8172,1,1,2,1.2839,1,1,0.091363,1,0,
32,0.75279,1,1,2,1.7173,1,1,0.094835,1,0,
32,0.55679,1,1,2,1.1846,1,1,0.088242,1,0,
32,0.5775,1,2,1,1.8337,1,2,0.46033,1,0,
32,0.7097,1,2,1,1.1697,1,1,0.15768,1,0,
32,0.69355,1,1,2,1.9533,1,2,0.26575,1,0,
32,0.77573,1,1,2,1.7225,1,1,0.086248,1,0,
32,0.80593,1,2,1,1.1342,1,1,0.15163,1,0,
32,0.51233,1,1,2,1.8531,1,1,0.085593,1,0,
32,0.61778,1,1,2,1.9317,1,2,0.27661,1,0,
32,0.9079,1,1,2,1.5642,1,1,0.08641,1,0,
32,0.51481,1,2,1,1.3988,1,2,0.44239,1,0,
32,0.72826,1,1,2,1.4416,1,1,0.090676,1,0,
32,0.60707,1,2,1,1.7017,1,1,0.15491,1,0,
32,0.49157,1,2,1,1.26,1,2,0.45134,1,0,
32,0.62096,1,2,1,1.0285,1,2,0.4636,1,0,
32,0.71049,1,2,1,1.948,1,1,0.15886,1,0,
32,0.40434,1,1,2,1.9962,1,2,0.27746,1,0,
32,0.69631,1,1,2,1.7795,1,1,0.089254,1,0,
32,0.61669,1,2,1,1.9894,1,2,0.46176,1,0,
32,0.52632,1,1,2,1.4876,1,1,0.087796,1,0,
32,0.88818,1,1,2,1.128,1,2,0.27827,1,0,
32,0.50193,1,1,2,1.4644,1,1,0.088746,1,0,
32,0.61604,1,2,1,1.7426,1,2,0.43627,1,0,
32,0.82804,1,1,2,1.6734,1,1,0.088327,1,0,
32,0.60682,1,2,1,1.874,1,2,0.44755,1,0,
32,1.3755,1,2,1,1.7583,1,1,0.1445,1,0,
32,0.51632,1,2,1,1.6172,1,2,0.44119,1,0,
32,0.47624,1,1,2,1.2748,1,2,0.28259,1,0,
32,0.51879,1,1,2,1.3364,1,2,0.276,1,0,
32,0.45612,1,2,1,1.8357,1,2,0.47714,1,0,
32,0.53716,1,1,1,1.3859,0,2,0.44603,1,0,
32,0.53527,1,1,2,1.0803,1,2,0.28373,1,0,
32,1.1176,1,1,1,1.8656,0,1,0.14762,1,0,
32,0.37831,1,2,1,1.4354,1,2,0.48309,1,0,
32,0.77688,1,1,2,1.1721,1,2,0.26843,1,0,
32,0.61959,1,2,1,1.0043,1,1,0.14797,1,0,
32,0.64404,1,1,2,1.6525,1,1,0.093735,1,0,
32,0.44064,1,2,1,1.3697,1,1,0.15022,1,0,
32,0.91599,1,2,1,1.3761,1,2,0.45803,1,0,
32,0.7768,1,1,2,1.4413,1,1,0.092975,1,0,
32,0.46781,1,2,1,1.5161,1,1,0.1586,1,0,
32,0.67295,1,2,1,1.3001,1,1,0.15081,1,0,
32,0.76899,1,2,1,1.4783,1,1,0.14572,1,0,
32,0.51983,1,2,1,1.0062,1,1,0.14858,1,0,
32,0.69298,1,2,1,1.1714,1,2,0.47361,1,0,
32,0.7331,1,1,2,1.3036,1,2,0.28507,1,0,
32,NaN,1,0,2,1.7445,NaN,1,0.091075,1,0,
32,0.60619,1,1,2,1.5809,1,2,0.28511,1,0,
32,NaN,1,0,2,1.7012,NaN,2,0.27414,1,0,
32,0.76444,1,1,2,1.8047,1,1,0.095583,1,0,
32,0.81645,1,2,1,1.852,1,1,0.15733,1,0,
32,1.4069,1,1,2,1.1177,1,2,0.26145,1,0,
32,0.59914,1,1,2,1.6573,1,1,0.090536,1,0,
32,0.60875,1,1,2,1.753,1,2,0.27549,1,0,
32,0.68749,1,2,1,1.7021,1,1,0.15927,1,0,
32,0.69223,1,2,1,1.6051,1,2,0.46326,1,0,
32,0.95758,1,2,1,1.0383,1,1,0.16169,1,0,
32,0.45029,1,1,2,1.1952,1,2,0.25976,1,0,
32,1.4679,1,1,1,1.3307,0,1,0.14906,1,0,
32,1.4904,1,2,1,1.6428,1,1,0.15224,1,0,
32,0.31936,1,1,2,1.2174,1,1,0.086589,1,0,
32,0.4709,1,1,2,1.0769,1,2,0.26273,1,0,
32,0.61503,1,2,1,1.9806,1,2,0.44144,1,0,
32,0.59129,1,2,1,1.2068,1,1,0.1557,1,0,
32,0.91725,1,2,2,1.9833,0,1,0.088567,1,0,
32,0.48659,1,1,2,1.6104,1,2,0.28031,1,0,
32,0.77857,1,1,2,1.248,1,2,0.27252,1,0,
32,NaN,1,0,1,1.4796,NaN,1,0.16163,1,1,
32,1.2729,1,1,2,1.8888,1,2,0.26385,1,1,
32,0.49835,1,2,1,1.2834,1,1,0.15787,1,1,
32,0.38617,1,1,2,1.7841,1,1,0.086639,1,1,
32,0.5017,1,2,1,1.1704,1,2,0.43411,1,1,
32,0.5022,1,2,1,1.7313,1,2,0.45553,1,1,
32,0.46089,1,2,1,1.2466,1,2,0.46128,1,1,
32,0.47984,1,2,1,1.0818,1,2,0.44398,1,1,
32,NaN,1,0,2,1.8529,NaN,1,0.086741,1,1,
32,0.57171,1,2,1,1.6866,1,2,0.46739,1,1,
32,0.57693,1,2,1,1.9581,1,1,0.15011,1,1,
32,0.60636,1,1,2,1.9851,1,2,0.27141,1,1,
32,0.96136,1,2,1,1.5347,1,1,0.15611,1,1,
32,0.51169,1,1,2,1.906,1,2,0.27408,1,1,
32,0.61865,1,1,2,1.4766,1,2,0.27128,1,1,
32,0.64115,1,2,1,1.8897,1,2,0.47276,1,1,
32,0.59896,1,2,1,1.0238,1,2,0.46782,1,1,
32,0.35335,1,1,2,1.1287,1,2,0.26551,1,1,
32,0.95583,1,1,2,1.7406,1,2,0.28165,1,1,
32,0.37033,1,1,2,1.391,1,1,0.09205,1,1,
32,0.64434,1,1,2,1.3936,1,1,0.091272,1,1,
32,0.3631,1,1,2,1.6018,1,1,0.085495,1,1,
32,0.69602,1,2,1,1.0239,1,1,0.15869,1,1,
32,0.4472,1,1,2,1.3877,1,2,0.2593,1,1,
32,0.69899,1,2,1,1.0567,1,1,0.15875,1,1,
32,1.3218,1,1,1,1.6896,0,1,0.14982,1,1,
32,0.95975,1,2,2,1.5204,0,1,0.089631,1,1,
32,0.50473,1,1,2,1.0761,1,1,0.09347,1,1,
32,0.83701,1,2,1,1.4063,1,1,0.14648,1,1,
32,0.3055,1,1,2,1.4302,1,1,0.091493,1,1,
32,0.35739,1,2,1,1.6593,1,1,0.16041,1,1,
32,1.1298,1,2,1,1.2184,1,1,0.15507,1,1,
32,0.85225,1,2,1,1.0811,1,2,0.43472,1,1,
32,0.36685,1,2,1,1.4677,1,2,0.46853,1,1,
32,0.62817,1,1,2,1.7287,1,1,0.08787,1,1,
32,NaN,1,0,1,1.614,NaN,1,0.15604,1,1,
32,0.51151,1,1,2,1.9006,1,2,0.26685,1,1,
32,0.75339,1,2,1,1.2528,1,2,0.46017,1,1,
32,NaN,1,0,1,1.2201,NaN,2,0.44353,1,1,
32,0.51967,1,1,2,1.2358,1,1,0.09468,1,1,
32,1.1037,1,1,2,1.8101,1,1,0.089056,1,1,
32,0.48222,1,1,2,1.7024,1,2,0.25825,1,1,
32,0.61567,1,1,2,1.8785,1,1,0.085611,1,1,
32,1.3412,1,1,1,1.711,0,2,0.46469,1,1,
32,0.7437,1,2,2,1.6611,0,2,0.28507,1,1,
32,0.79111,1,2,1,1.4396,1,2,0.44856,1,1,
32,1.1737,1,1,2,1.5628,1,1,0.092949,1,1,
32,1.0094,1,1,2,1.9903,1,2,0.26458,1,1,
32,0.49752,1,1,2,1.9573,1,1,0.086537,1,1,
32,0.76755,1,2,1,1.3368,1,1,0.1529,1,1,
32,0.82629,1,2,1,1.1555,1,1,0.15069,1,1,
32,0.41958,1,1,2,1.4171,1,2,0.28644,1,1,
32,0.55902,1,2,1,1.5545,1,2,0.44711,1,1,
32,0.47235,1,1,2,1.0298,1,2,0.27398,1,1,
32,1.1468,1,1,2,1.8667,1,2,0.27332,1,1,
32,0.47796,1,1,2,1.8944,1,1,0.091575,1,1,
32,0.48571,1,1,2,1.4972,1,2,0.27299,1,1,
32,0.45913,1,2,1,1.2093,1,1,0.14883,1,1,
32,0.43916,1,2,1,1.7216,1,2,0.43996,1,1,
32,0.46973,1,2,1,1.6997,1,1,0.1568,1,1,
32,0.55931,1,1,2,1.4607,1,2,0.25709,1,1,
32,0.34395,1,1,2,1.1706,1,1,0.093555,1,1,
32,0.48649,1,2,1,1.7944,1,2,0.45304,1,1,
32,0.42746,1,1,2,1.8885,1,2,0.28158,1,1,
32,1.1101,1,1,2,1.1425,1,1,0.095397,1,1,
32,0.50137,1,2,1,1.9397,1,2,0.45388,1,1,
32,0.43241,1,1,2,1.0003,1,2,0.25751,1,1,
32,0.3289,1,2,1,1.4388,1,2,0.47334,1,1,
32,0.50778,1,2,1,1.0112,1,2,0.46486,1,1,
32,0.38353,1,1,2,1.2345,1,1,0.090453,1,1,
32,0.5516,1,2,1,1.707,1,2,0.46153,1,1,
32,0.54892,1,1,2,1.6942,1,2,0.26519,1,1,
32,0.44231,1,1,2,1.2651,1,2,0.27891,1,1,
32,0.43011,1,2,1,1.3266,1,2,0.44942,1,1,
32,0.98334,1,2,1,1.0932,1,1,0.15954,1,1,
32,0.46463,1,1,2,1.0416,1,1,0.088648,1,1,
32,0.61066,1,1,2,1.7593,1,1,0.093494,1,1,
32,0.62456,1,1,2,1.3249,1,1,0.093589,1,1,
32,0.47619,1,2,1,1.5218,1,2,0.43484,1,1,
32,0.6111,1,2,1,1.9519,1,1,0.15095,1,1,
32,0.39131,1,1,2,1.669,1,1,0.095333,1,1,
32,0.58174,1,2,1,1.4731,1,1,0.15115,1,1,
32,1.4661,1,2,1,1.6494,1,2,0.4491,1,1,
32,0.36264,1,1,2,1.6656,1,2,0.27537,1,1,
32,0.73329,1,2,1,1.2301,1,1,0.15907,1,1,
32,0.4071,1,1,2,1.8049,1,2,0.28023,1,1,
32,0.49131,1,2,1,1.5028,1,1,0.15333,1,1,
32,0.34494,1,1,2,1.434,1,2,0.27873,1,1,
32,0.65605,1,1,2,1.709,1,2,0.27867,1,1,
32,0.51412,1,2,1,1.5553,1,2,0.45505,1,1,
32,0.32168,1,1,2,1.255,1,1,0.094082,1,1,
32,0.83784,1,2,1,1.0752,1,1,0.15255,1,1,
32,0.39217,1,1,2,1.5891,1,2,0.28544,1,1,
32,0.43761,1,1,2,1.6742,1,1,0.093513,1,1,
32,0.60143,1,2,1,1.588,1,2,0.43901,1,1,
32,0.29604,1,1,2,1.5337,1,1,0.087674,1,1,
32,0.62107,1,2,1,1.4726,1,1,0.14625,1,1,
32,0.5155,1,2,1,1.3238,1,1,0.15325,1,1,
32,0.6876,1,2,1,1.431,1,1,0.14506,1,1,
32,0.58851,1,2,1,1.7649,1,1,0.1521,1,1,
32,NaN,1,0,1,1.3928,NaN,1,0.15735,0,0,
32,NaN,1,0,1,1.1546,NaN,2,0.46153,0,0,
32,0.50207,1,1,1,1.8323,1,2,0.46616,0,0,
32,0.41596,1,1,1,1.1498,1,2,0.46511,0,0,
32,0.48738,1,2,2,1.6795,1,1,0.092833,0,0,
32,0.36102,1,1,1,1.7501,1,1,0.15961,0,0,
32,NaN,1,0,2,1.0149,NaN,2,0.27631,0,0,
32,0.43508,1,2,2,1.1422,1,2,0.2595,0,0,
32,0.68373,1,2,2,1.0307,1,2,0.27784,0,0,
32,0.53433,1,2,2,1.8087,1,1,0.089814,0,0,
32,0.32864,1,1,1,1.0471,1,2,0.46545,0,0,
32,0.29544,1,2,2,1.6662,1,1,0.091924,0,0,
32,0.38742,1,2,2,1.456,1,2,0.27671,0,0,
32,0.32616,1,2,2,1.803,1,2,0.25766,0,0,
32,0.38392,1,1,1,1.3584,1,2,0.44363,0,0,
32,0.79704,1,2,2,1.0253,1,2,0.26092,0,0,
32,0.42209,1,2,2,1.2186,1,1,0.094932,0,0,
32,0.31879,1,1,1,1.7109,1,2,0.45876,0,0,
32,0.28604,1,2,2,1.5489,1,2,0.27655,0,0,
32,0.30491,1,1,1,1.8697,1,1,0.15563,0,0,
32,1.4481,1,1,1,1.7388,1,1,0.14547,0,0,
32,NaN,1,0,1,1.1032,NaN,1,0.14789,0,0,
32,0.3627,1,1,1,1.9714,1,2,0.44671,0,0,
32,NaN,1,0,2,1.7387,NaN,1,0.09477,0,0,
32,0.6054,1,2,2,1.0139,1,1,0.087587,0,0,
32,0.3707,1,1,1,1.6791,1,1,0.1483,0,0,
32,0.32311,1,1,1,1.4855,1,2,0.46734,0,0,
32,0.78995,1,1,1,1.0347,1,1,0.15528,0,0,
32,0.55085,1,2,2,1.1144,1,2,0.27752,0,0,
32,0.34593,1,2,2,1.0766,1,2,0.28181,0,0,
32,0.42546,1,2,2,1.6078,1,2,0.27827,0,0,
32,0.49116,1,2,2,1.2335,1,2,0.25649,0,0,
32,0.65731,1,2,2,1.142,1,1,0.091237,0,0,
32,NaN,1,0,1,1.5302,NaN,1,0.16023,0,0,
32,0.47066,1,1,1,1.9303,1,1,0.14564,0,0,
32,0.43145,1,1,1,1.6169,1,2,0.46084,0,0,
32,0.39619,1,1,1,1.6899,1,2,0.48124,0,0,
32,0.78473,1,1,2,1.2344,0,1,0.087288,0,0,
32,0.82565,1,2,2,1.2068,1,1,0.090625,0,0,
32,0.44775,1,2,2,1.0374,1,1,0.086561,0,0,
32,0.31958,1,1,1,1.6634,1,2,0.47126,0,0,
32,0.37629,1,2,2,1.5073,1,2,0.26536,0,0,
32,0.51244,1,1,1,1.4858,1,1,0.14725,0,0,
32,0.43559,1,1,1,1.8617,1,2,0.48399,0,0,
32,0.44085,1,1,1,1.9655,1,2,0.46931,0,0,
32,0.43483,1,2,2,1.7597,1,1,0.093814,0,0,
32,0.52628,1,2,2,1.2467,1,2,0.27686,0,0,
32,0.41635,1,1,1,1.6763,1,1,0.15602,0,0,
32,0.44207,1,2,2,1.7593,1,1,0.090683,0,0,
32,0.59398,1,2,2,1.5862,1,1,0.087182,0,0,
32,0.39252,1,2,2,1.8224,1,2,0.27087,0,0,
32,0.46887,1,2,2,1.9268,1,1,0.090983,0,0,
32,0.5486,1,1,1,1.6376,1,1,0.15853,0,0,
32,0.40978,1,2,2,1.0189,1,2,0.26197,0,0,
32,0.36939,1,1,1,1.1843,1,1,0.15314,0,0,
32,0.38974,1,2,2,1.0267,1,2,0.28086,0,0,
32,0.24396,1,1,1,1.935,1,1,0.15013,0,0,
32,0.3211,1,2,1,1.4845,0,1,0.15349,0,0,
32,0.22094,1,2,2,1.7948,1,2,0.27796,0,0,
32,0.36509,1,2,2,1.4568,1,1,0.087319,0,0,
32,0.24505,1,1,1,1.4942,1,2,0.46559,0,0,
32,0.65885,1,2,2,1.4257,1,1,0.085308,0,0,
32,0.41409,1,2,2,1.8918,1,1,0.090499,0,0,
32,0.3369,1,2,2,1.8743,1,2,0.27327,0,0,
32,0.36765,1,1,1,1.6332,1,2,0.43269,0,0,
32,0.45115,1,2,2,1.2923,1,2,0.28362,0,0,
32,0.21587,1,1,1,1.2917,1,2,0.47586,0,0,
32,0.38845,1,2,2,1.2455,1,2,0.27981,0,0,
32,0.5212,1,2,2,1.7043,1,2,0.28023,0,0,
32,0.44094,1,2,2,1.7746,1,1,0.089057,0,0,
32,0.34876,1,1,1,1.8227,1,1,0.14666,0,0,
32,0.35277,1,2,2,1.8062,1,1,0.088838,0,0,
32,NaN,1,0,2,1.2538,NaN,1,0.091884,0,0,
32,0.25567,1,1,1,1.8005,1,2,0.4813,0,0,
32,0.53397,1,1,1,1.6297,1,1,0.14567,0,0,
32,0.52793,1,2,2,1.2315,1,2,0.27864,0,0,
32,0.50898,1,1,2,1.3811,0,1,0.085851,0,0,
32,1.0404,1,2,2,1.4532,1,2,0.27923,0,0,
32,0.38611,1,2,2,1.5006,1,1,0.089983,0,0,
32,0.40156,1,1,1,1.5406,1,2,0.43458,0,0,
32,0.45774,1,1,1,1.3451,1,2,0.47635,0,0,
32,0.55815,1,1,1,1.2914,1,1,0.14687,0,0,
32,0.44447,1,1,1,1.7035,1,2,0.4381,0,0,
32,0.28328,1,1,1,1.9341,1,2,0.44607,0,0,
32,0.5492,1,2,2,1.5942,1,2,0.26535,0,0,
32,0.33729,1,1,1,1.5931,1,1,0.15453,0,0,
32,0.37755,1,2,2,1.7387,1,1,0.092227,0,0,
32,0.3892,1,1,1,1.3726,1,1,0.16147,0,0,
32,0.34844,1,1,1,1.4533,1,1,0.16157,0,0,
32,0.26198,1,1,1,1.5094,1,2,0.47173,0,0,
32,0.30959,1,2,2,1.9287,1,1,0.088052,0,0,
32,0.28571,1,2,2,1.4508,1,1,0.095211,0,0,
32,0.33467,1,1,1,1.6374,1,1,0.1511,0,0,
32,0.36831,1,1,1,1.4594,1,1,0.14775,0,0,
32,0.34041,1,2,2,1.5538,1,2,0.27515,0,0,
32,0.42693,1,1,1,1.0412,1,1,0.14436,0,0,
32,0.31457,1,1,1,1.8022,1,2,0.4345,0,0,
32,0.47886,1,1,1,1.6715,1,2,0.4414,0,0,
32,0.3302,1,1,1,1.2003,1,2,0.44243,0,0,
32,0.45704,1,1,1,1.0146,1,1,0.15655,0,0,
32,0.9261,1,2,2,1.8053,1,1,0.091858,0,1,
32,0.27559,1,1,1,1.269,1,2,0.44607,0,1,
32,0.31051,1,2,2,1.434,1,1,0.086362,0,1,
32,0.43333,1,2,2,1.4018,1,2,0.25771,0,1,
32,0.46511,1,2,2,1.6081,1,2,0.27492,0,1,
32,0.50839,1,2,2,1.7701,1,1,0.092457,0,1,
32,0.40898,1,1,1,1.9411,1,2,0.44624,0,1,
32,0.54641,1,1,1,1.1315,1,1,0.15129,0,1,
32,0.38324,1,1,1,1.2557,1,2,0.45093,0,1,
32,0.58352,1,2,2,1.3783,1,1,0.086118,0,1,
32,0.52411,1,2,2,1.9937,1,1,0.085995,0,1,
32,0.40189,1,2,2,1.341,1,2,0.25951,0,1,
32,0.36586,1,1,1,1.8996,1,2,0.46743,0,1,
32,0.67883,1,2,2,1.2375,1,1,0.087485,0,1,
32,0.45579,1,1,1,1.22,1,2,0.44431,0,1,
32,0.50895,1,1,1,1.9911,1,2,0.43276,0,1,
32,0.3725,1,1,1,1.9511,1,1,0.15669,0,1,
32,0.42168,1,2,2,1.6382,1,2,0.273,0,1,
32,0.45169,1,2,2,1.5041,1,1,0.090904,0,1,
32,0.51128,1,2,2,1.3581,1,1,0.092917,0,1,
32,0.31499,1,1,1,1.7685,1,2,0.47539,0,1,
32,0.43524,1,1,1,1.7844,1,2,0.45237,0,1,
32,0.44657,1,2,2,1.0289,1,2,0.25996,0,1,
32,0.74202,1,2,2,1.0524,1,1,0.087251,0,1,
32,0.41139,1,2,2,1.3234,1,2,0.27805,0,1,
32,0.42293,1,1,1,1.7997,1,2,0.46698,0,1,
32,0.56989,1,1,1,1.6302,1,2,0.43532,0,1,
32,0.76562,1,2,2,1.9828,1,2,0.2675,0,1,
32,NaN,1,0,2,1.1582,NaN,1,0.090271,0,1,
32,0.95434,1,1,1,1.6167,1,1,0.15755,0,1,
32,0.47149,1,2,2,1.3087,1,2,0.26031,0,1,
32,NaN,1,0,1,1.0851,NaN,1,0.1524,0,1,
32,0.92194,1,2,2,1.8768,1,1,0.086015,0,1,
32,0.96533,1,2,2,1.5907,1,2,0.28021,0,1,
32,1.4036,1,2,2,1.3031,1,2,0.26779,0,1,
32,0.79531,1,2,2,1.1681,1,2,0.26297,0,1,
32,0.41074,1,2,2,1.3399,1,2,0.25831,0,1,
32,0.55757,1,1,1,1.0674,1,1,0.14543,0,1,
32,0.49452,1,2,2,1.6535,1,1,0.09492,0,1,
32,0.31189,1,1,1,1.2443,1,1,0.14755,0,1,
32,0.53529,1,2,2,1.7579,1,2,0.28572,0,1,
32,0.32699,1,1,1,1.299,1,2,0.44958,0,1,
32,0.33199,1,1,2,1.4188,0,1,0.095276,0,1,
32,0.4459,1,1,1,1.0558,1,1,0.14992,0,1,
32,0.364,1,2,2,1.0309,1,2,0.2578,0,1,
32,0.47464,1,2,2,1.1866,1,1,0.091539,0,1,
32,0.36316,1,1,2,1.2709,0,1,0.090942,0,1,
32,0.36682,1,1,1,1.0662,1,2,0.47989,0,1,
32,0.40253,1,1,1,1.3335,1,2,0.44247,0,1,
32,0.37337,1,1,1,1.0499,1,1,0.15779,0,1,
32,0.41483,1,1,1,1.1013,1,1,0.15,0,1,
32,0.37812,1,1,1,1.0719,1,1,0.16118,0,1,
32,0.41981,1,1,1,1.9045,1,1,0.15867,0,1,
32,0.45082,1,1,1,1.3118,1,1,0.15642,0,1,
32,0.36602,1,1,1,1.5918,1,1,0.14772,0,1,
32,0.57967,1,2,2,1.3776,1,1,0.085459,0,1,
32,0.33954,1,1,1,1.9516,1,2,0.44292,0,1,
32,0.50098,1,2,2,1.7424,1,2,0.27223,0,1,
32,0.43538,1,2,2,1.8871,1,2,0.25914,0,1,
32,0.35982,1,1,1,1.5989,1,1,0.159,0,1,
32,0.633,1,1,1,1.6896,1,2,0.48013,0,1,
32,0.35303,1,2,2,1.3911,1,2,0.26595,0,1,
32,0.48311,1,2,1,1.2233,0,2,0.45633,0,1,
32,1.022,1,1,1,1.1313,1,1,0.14416,0,1,
32,0.63241,1,2,2,1.1725,1,2,0.26525,0,1,
32,1.1066,1,2,2,1.9386,1,1,0.090208,0,1,
32,0.69172,1,1,1,1.0345,1,2,0.44558,0,1,
32,0.36301,1,1,1,1.8796,1,2,0.46771,0,1,
32,0.64987,1,2,2,1.5223,1,1,0.094742,0,1,
32,0.51573,1,1,1,1.8082,1,2,0.46168,0,1,
32,0.37259,1,2,2,1.4476,1,2,0.26386,0,1,
32,0.39409,1,1,1,1.3465,1,2,0.48111,0,1,
32,0.5245,1,1,1,1.7572,1,1,0.14518,0,1,
32,0.45467,1,1,1,1.3602,1,1,0.15489,0,1,
32,0.45729,1,2,2,1.5566,1,1,0.095148,0,1,
32,0.37776,1,1,1,1.8887,1,1,0.15294,0,1,
32,0.46954,1,2,2,1.8402,1,2,0.28572,0,1,
32,0.79897,1,1,1,1.244,1,1,0.1487,0,1,
32,0.39409,1,2,2,1.4356,1,1,0.090643,0,1,
32,0.4836,1,1,1,1.8286,1,1,0.16005,0,1,
32,0.41265,1,2,2,1.1527,1,1,0.087442,0,1,
32,0.33838,1,1,1,1.758,1,1,0.1585,0,1,
32,0.61734,1,1,1,1.8765,1,2,0.43928,0,1,
32,1.0509,1,1,1,1.5021,1,1,0.15156,0,1,
32,0.52219,1,2,2,1.5703,1,1,0.094351,0,1,
32,NaN,1,0,2,1.8515,NaN,2,0.27754,0,1,
32,0.48783,1,1,1,1.9846,1,2,0.4578,0,1,
32,0.94669,1,2,2,1.7902,1,1,0.091509,0,1,
32,0.5687,1,1,1,1.3507,1,1,0.14541,0,1,
32,0.86801,1,2,2,1.5019,1,2,0.26313,0,1,
32,0.50877,1,1,1,1.2552,1,2,0.43362,0,1,
32,0.32973,1,2,2,1.5099,1,2,0.28212,0,1,
32,0.57711,1,2,2,1.0786,1,2,0.25636,0,1,
32,0.51553,1,2,2,1.0559,1,1,0.090888,0,1,
32,NaN,1,0,1,1.635,NaN,1,0.14611,0,1,
32,NaN,1,0,1,1.6169,NaN,2,0.46261,0,1,
32,0.89779,1,1,1,1.0815,1,2,0.46444,0,1,
32,0.28097,1,1,2,1.6095,0,1,0.092968,0,1,
32,0.5046,1,2,2,1.5447,1,2,0.26522,0,1,
32,0.38521,1,1,1,1.8559,1,1,0.16015,0,1,
32,NaN,2,0,1,1.0755,NaN,1,0.14733,1,0,
32,1.3081,2,2,1,1.9338,0,2,0.46483,1,0,
32,0.71544,2,2,1,1.3594,0,1,0.14518,1,0,
32,0.54362,2,1,2,1.0669,0,2,0.27877,1,0,
32,NaN,2,0,1,1.9659,NaN,1,0.15448,1,0,
32,0.5019,2,1,2,1.6495,0,1,0.09352,1,0,
32,0.47248,2,2,1,1.4206,0,1,0.1468,1,0,
32,0.45332,2,1,1,1.5964,1,1,0.15689,1,0,
32,0.74318,2,2,1,1.3471,0,1,0.15724,1,0,
32,0.45868,2,2,2,1.2176,1,1,0.094417,1,0,
32,0.51831,2,1,2,1.0378,0,1,0.089629,1,0,
32,0.83807,2,2,1,1.1534,0,2,0.44177,1,0,
32,0.57323,2,1,2,1.3734,0,2,0.26501,1,0,
32,NaN,2,0,1,1.8768,NaN,1,0.14953,1,0,
32,0.51358,2,1,2,1.4411,0,1,0.08976,1,0,
32,0.65838,2,2,2,1.6378,1,1,0.088936,1,0,
32,0.79295,2,1,2,1.3878,0,2,0.27503,1,0,
32,0.43368,2,1,2,1.8372,0,1,0.095044,1,0,
32,0.53923,2,2,1,1.7663,0,2,0.44685,1,0,
32,0.42633,2,2,1,1.1256,0,1,0.14823,1,0,
32,0.56367,2,1,2,1.0927,0,2,0.28454,1,0,
32,0.36516,2,2,1,1.6603,0,2,0.48098,1,0,
32,1.3054,2,1,2,1.3777,0,2,0.26522,1,0,
32,0.85204,2,1,2,1.1078,0,1,0.086061,1,0,
32,0.53308,2,2,1,1.6238,0,2,0.473,1,0,
32,0.46906,2,2,1,1.6216,0,2,0.43889,1,0,
32,0.43578,2,2,1,1.9116,0,2,0.45593,1,0,
32,0.5143,2,1,2,1.6061,0,2,0.26922,1,0,
32,0.81148,2,1,2,1.4853,0,1,0.091461,1,0,
32,0.32479,2,1,2,1.5767,0,2,0.25969,1,0,
32,0.32001,2,1,2,1.9821,0,2,0.27419,1,0,
32,0.73803,2,1,2,1.5186,0,1,0.086615,1,0,
32,0.63434,2,2,1,1.3487,0,2,0.43811,1,0,
32,0.45956,2,1,1,1.9829,1,1,0.15162,1,0,
32,0.65825,2,2,1,1.992,0,1,0.14868,1,0,
32,NaN,2,0,1,1.8962,NaN,2,0.48198,1,0,
32,0.6481,2,2,1,1.7416,0,1,0.15294,1,0,
32,0.66921,2,2,1,1.6647,0,1,0.15169,1,0,
32,1.0428,2,2,1,1.7334,0,2,0.44797,1,0,
32,0.58038,2,2,1,1.4359,0,2,0.45635,1,0,
32,0.46028,2,1,2,1.3996,0,1,0.093316,1,0,
32,0.76051,2,1,2,1.2179,0,1,0.086981,1,0,
32,0.57138,2,2,1,1.8816,0,1,0.14448,1,0,
32,0.41763,2,1,2,1.9421,0,2,0.27768,1,0,
32,0.38534,2,2,1,1.949,0,1,0.15451,1,0,
