"subjIndx","trial_RT","trial_blockType","trial_response","trial_limbside","trial_randSOA","trial_correct","trial_int","trial_actualIntensity","trial_crossed_legs","trial_crossed_hand",
32,0.69076,2,1,2,1.1465,1,1,0.12061,1,0,
32,0.57758,2,1,2,1.6311,1,2,0.3477,1,0,
32,0.68917,2,1,2,1.8593,1,1,0.12661,1,0,
32,0.58322,2,2,1,1.9742,1,1,0.23043,1,0,
32,0.46731,2,2,1,1.5708,1,1,0.22649,1,0,
32,0.54038,2,1,2,1.9969,1,1,0.12666,1,0,
32,0.61482,2,1,2,1.5535,1,2,0.36766,1,0,
32,0.34088,2,1,2,1.5155,1,2,0.35913,1,0,
32,0.36447,2,1,2,1.3307,1,1,0.12517,1,0,
32,0.29552,2,1,2,1.43,1,2,0.36248,1,0,
32,0.31228,2,1,2,1.4918,1,2,0.36337,1,0,
32,0.68056,2,2,1,1.071,1,2,0.69846,1,0,
32,0.50175,2,2,1,1.8877,1,2,0.67375,1,0,
32,0.50211,2,2,1,1.0646,1,2,0.6639,1,0,
32,0.34633,2,2,1,1.4362,1,2,0.69038,1,0,
32,0.48899,2,1,2,1.8266,1,1,0.12557,1,0,
32,0.48692,2,1,2,1.3945,1,2,0.35726,1,0,
32,0.4387,2,1,2,1.6135,1,1,0.11512,1,0,
32,0.85386,2,2,1,1.8186,1,2,0.67972,1,0,
32,0.5818,2,2,1,1.8862,1,1,0.22286,1,0,
32,0.45018,2,2,1,1.9311,1,1,0.22547,1,0,
32,0.46697,2,1,2,1.1908,1,2,0.37525,1,0,
32,0.58422,2,1,2,1.2586,1,1,0.11904,1,0,
32,0.49817,2,2,1,1.8979,1,2,0.67554,1,0,
32,0.50732,2,1,2,1.5934,1,2,0.35536,1,0,
32,0.67215,2,1,2,1.5038,1,1,0.11549,1,0,
32,0.63056,2,1,2,1.6128,1,1,0.11709,1,0,
32,0.63427,2,2,1,1.8194,1,1,0.21745,1,0,
32,0.55641,2,1,2,1.5319,1,2,0.3582,1,0,
32,0.79113,2,2,1,1.2021,1,1,0.22176,1,0,
32,0.48523,2,1,2,1.4539,1,2,0.3528,1,0,
32,0.49888,2,2,1,1.4279,1,1,0.22608,1,0,
32,0.44858,2,1,2,1.9661,1,1,0.11521,1,0,
32,0.72097,2,1,2,1.6201,1,1,0.1203,1,0,
32,0.50851,2,2,1,1.6954,1,2,0.70058,1,0,
32,0.62056,2,1,2,1.7202,1,2,0.35061,1,0,
32,NaN,2,0,1,1.3469,NaN,2,0.70696,1,0,
32,0.55897,2,1,2,1.517,1,1,0.11461,1,0,
32,NaN,2,0,1,1.5567,NaN,2,0.67582,1,0,
32,0.92929,2,1,2,1.1565,1,1,0.11368,1,0,
32,0.53106,2,2,1,1.5621,1,1,0.22083,1,0,
32,0.45324,2,1,2,1.6948,1,2,0.34097,1,0,
32,0.70949,2,1,2,1.4265,1,1,0.11614,1,0,
32,0.45322,2,1,2,1.8363,1,1,0.11552,1,0,
32,0.53597,2,1,2,1.7314,1,1,0.1172,1,0,
32,0.47472,2,2,1,1.36,1,1,0.21967,1,0,
32,0.51245,2,2,1,1.4542,1,2,0.65625,1,0,
32,0.52429,2,1,2,1.3864,1,1,0.12175,1,0,
32,0.50766,2,2,1,1.7756,1,2,0.71646,1,0,
32,0.48326,2,1,2,1.7343,1,1,0.12662,1,0,
32,0.47857,2,2,1,1.4303,1,2,0.66252,1,0,
32,0.60251,2,1,2,1.6938,1,1,0.12013,1,0,
32,0.46352,2,2,1,1.9452,1,1,0.22481,1,0,
32,0.58216,2,2,1,1.7842,1,2,0.68601,1,0,
32,0.51671,2,1,2,1.7056,1,2,0.35147,1,0,
32,0.50298,2,2,1,1.1093,1,2,0.65096,1,0,
32,0.54328,2,1,1,1.3899,0,1,0.22638,1,0,
32,0.63526,2,1,2,1.5909,1,2,0.34781,1,0,
32,0.47201,2,1,2,1.4594,1,2,0.34194,1,0,
32,0.54175,2,2,1,1.0503,1,2,0.7209,1,0,
32,1.454,2,2,1,1.2287,1,1,0.22623,1,0,
32,0.51985,2,2,1,1.8342,1,2,0.72147,1,0,
32,0.55858,2,1,2,1.0156,1,1,0.12407,1,0,
32,0.43974,2,1,2,1.8637,1,2,0.34121,1,0,
32,0.85275,2,2,1,1.0781,1,1,0.23282,1,0,
32,0.56801,2,2,1,1.669,1,2,0.70055,1,0,
32,0.48418,2,2,1,1.5002,1,1,0.23189,1,0,
32,0.43551,2,2,1,1.218,1,1,0.22942,1,0,
32,0.43719,2,2,1,1.5716,1,2,0.66228,1,0,
32,0.44207,2,2,1,1.1222,1,1,0.23531,1,0,
32,0.51907,2,1,2,1.6712,1,2,0.34999,1,0,
32,1.6177,2,1,1,1.5996,0,2,0.67404,1,0,
32,1.2345,2,2,1,1.056,1,1,0.23854,1,0,
32,0.37552,2,2,1,1.0563,1,2,0.71278,1,0,
32,0.53148,2,1,2,1.1525,1,1,0.11903,1,0,
32,1.4696,2,2,1,1.0196,1,1,0.22332,1,0,
32,1.4238,2,2,1,1.4352,1,1,0.23091,1,0,
32,0.55507,2,1,2,1.8322,1,2,0.37858,1,0,
32,0.41463,2,1,2,1.6174,1,2,0.37853,1,0,
32,0.59717,2,2,1,1.5201,1,2,0.69138,1,0,
32,0.40531,2,1,2,1.8639,1,2,0.35423,1,0,
32,0.594,2,2,1,1.0977,1,1,0.2375,1,0,
32,0.78542,2,2,1,1.9081,1,2,0.67961,1,0,
32,0.46514,2,1,2,1.108,1,2,0.37833,1,0,
32,0.49456,2,1,2,1.517,1,1,0.11407,1,0,
32,0.52731,2,1,2,1.1432,1,2,0.36247,1,0,
32,1.2499,2,2,1,1.5594,1,1,0.2338,1,0,
32,0.5702,2,1,2,1.0046,1,1,0.11601,1,0,
32,0.60311,2,2,1,1.7667,1,2,0.67138,1,0,
32,0.57744,2,2,1,1.8487,1,2,0.65997,1,0,
32,0.51836,2,1,2,1.9168,1,2,0.35379,1,0,
32,1.5411,2,2,1,1.987,1,1,0.22553,1,0,
32,0.52721,2,2,1,1.5051,1,1,0.22932,1,0,
32,0.43879,2,2,1,1.2714,1,1,0.2165,1,0,
32,0.58503,2,1,2,1.1008,1,2,0.36332,1,0,
32,0.68349,2,2,1,1.5078,1,2,0.66662,1,0,
32,1.8295,2,2,2,1.5856,0,1,0.11684,1,0,
32,0.53442,2,1,2,1.7629,1,2,0.3506,1,0,
32,1.1447,2,1,1,1.083,0,1,0.21914,1,0,
32,0.51817,2,1,2,1.6616,1,1,0.12687,1,0,
32,0.78312,2,1,1,1.3209,1,2,0.68876,1,1,
32,0.52581,2,2,2,1.5114,1,1,0.12398,1,1,
32,1.3255,2,2,2,1.0606,1,2,0.38232,1,1,
32,0.60378,2,1,2,1.7257,0,2,0.38087,1,1,
32,0.43379,2,1,2,1.5566,0,2,0.36258,1,1,
32,0.4474,2,2,2,1.5294,1,1,0.12698,1,1,
32,0.3242,2,2,2,1.83,1,1,0.11516,1,1,
32,0.41897,2,2,2,1.8588,1,2,0.34294,1,1,
32,0.75598,2,1,1,1.789,1,1,0.22296,1,1,
32,0.86703,2,2,2,1.3178,1,1,0.12149,1,1,
32,0.76051,2,1,1,1.4522,1,2,0.68657,1,1,
32,0.6514,2,1,1,1.7522,1,1,0.23882,1,1,
32,0.53585,2,2,2,1.1099,1,2,0.36281,1,1,
32,0.80873,2,2,2,1.1097,1,2,0.3583,1,1,
32,0.74064,2,2,2,1.2699,1,2,0.3629,1,1,
32,0.5658,2,1,1,1.5246,1,1,0.23369,1,1,
32,0.6121,2,2,2,1.9727,1,2,0.34157,1,1,
32,0.62402,2,2,2,1.7104,1,2,0.37385,1,1,
32,0.47263,2,2,1,1.3119,0,2,0.65655,1,1,
32,0.71616,2,2,2,1.2915,1,1,0.12008,1,1,
32,0.54364,2,1,2,1.8504,0,2,0.35115,1,1,
32,0.57662,2,1,1,1.9116,1,1,0.22463,1,1,
32,0.80176,2,1,1,1.6393,1,1,0.23233,1,1,
32,0.4391,2,1,1,1.2554,1,2,0.6586,1,1,
32,0.42481,2,1,1,1.0887,1,2,0.66693,1,1,
32,0.52179,2,2,2,1.8383,1,2,0.34879,1,1,
32,0.52571,2,2,2,1.5847,1,1,0.11622,1,1,
32,0.70349,2,2,1,1.9481,0,1,0.22354,1,1,
32,0.45081,2,1,2,1.061,0,2,0.37728,1,1,
32,0.58543,2,2,2,1.5846,1,1,0.11997,1,1,
32,0.4076,2,2,2,1.2851,1,2,0.35715,1,1,
32,0.48544,2,1,2,1.8277,0,2,0.34803,1,1,
32,0.69758,2,1,1,1.191,1,1,0.24069,1,1,
32,0.66731,2,2,2,1.4425,1,2,0.35729,1,1,
32,0.60543,2,1,1,1.3934,1,1,0.23727,1,1,
32,1.0843,2,2,2,1.8266,1,1,0.12198,1,1,
32,0.61993,2,1,1,1.6769,1,1,0.22483,1,1,
32,0.51114,2,1,1,1.2076,1,2,0.71449,1,1,
32,0.42526,2,1,1,1.3181,1,2,0.70694,1,1,
32,0.37947,2,1,1,1.1338,1,2,0.68138,1,1,
32,0.42165,2,1,1,1.6715,1,2,0.70931,1,1,
32,0.63735,2,2,2,1.571,1,1,0.12602,1,1,
32,0.69272,2,2,2,1.1698,1,1,0.1194,1,1,
32,0.93114,2,1,1,1.1477,1,2,0.67121,1,1,
32,0.529,2,1,1,1.4761,1,1,0.2306,1,1,
32,0.76113,2,2,2,1.9081,1,2,0.37823,1,1,
32,1.2273,2,2,2,1.5522,1,2,0.36962,1,1,
32,0.69886,2,1,1,1.0329,1,1,0.22485,1,1,
32,0.59588,2,1,1,1.0539,1,2,0.70289,1,1,
32,0.64386,2,2,2,1.8051,1,1,0.12683,1,1,
32,0.5722,2,2,1,1.4514,0,1,0.22917,1,1,
32,1.4865,2,1,1,1.3826,1,1,0.2291,1,1,
32,0.81761,2,1,1,1.7896,1,2,0.66941,1,1,
32,0.4223,2,1,1,1.3643,1,2,0.65118,1,1,
32,0.54859,2,1,1,1.5323,1,1,0.21985,1,1,
32,0.5795,2,1,1,1.7117,1,1,0.2176,1,1,
32,0.67292,2,2,2,1.8715,1,2,0.3596,1,1,
32,0.54726,2,2,1,1.3287,0,1,0.21552,1,1,
32,1.0295,2,2,2,1.6501,1,2,0.37879,1,1,
32,0.79609,2,2,2,1.9748,1,1,0.12237,1,1,
32,0.60235,2,1,1,1.076,1,1,0.21532,1,1,
32,0.91289,2,2,1,1.587,0,2,0.64812,1,1,
32,0.80745,2,2,1,1.4139,0,2,0.66155,1,1,
32,0.50374,2,2,2,1.3091,1,1,0.11975,1,1,
32,0.8354,2,2,2,1.2638,1,1,0.11532,1,1,
32,0.49736,2,1,2,1.7588,0,2,0.34126,1,1,
32,0.61963,2,1,1,1.9952,1,2,0.70225,1,1,
32,1.3466,2,2,1,1.1866,0,1,0.22425,1,1,
32,0.90629,2,1,1,1.7811,1,1,0.23553,1,1,
32,0.77113,2,2,2,1.1958,1,1,0.1195,1,1,
32,0.84236,2,1,1,1.9924,1,2,0.67915,1,1,
32,0.83995,2,1,2,1.8023,0,2,0.34286,1,1,
32,1.1397,2,1,1,1.4242,1,1,0.21652,1,1,
32,1.1463,2,1,1,1.7289,1,1,0.21756,1,1,
32,0.54698,2,2,2,1.4984,1,2,0.36505,1,1,
32,0.49367,2,2,2,1.809,1,1,0.11684,1,1,
32,0.46352,2,2,2,1.3565,1,1,0.1252,1,1,
32,0.53041,2,1,1,1.0732,1,2,0.71285,1,1,
32,0.48065,2,1,1,1.591,1,2,0.72164,1,1,
32,0.53829,2,2,2,1.9102,1,1,0.12022,1,1,
32,0.51213,2,1,1,1.1938,1,2,0.66245,1,1,
32,0.5758,2,2,2,1.4324,1,2,0.34991,1,1,
32,1.1099,2,2,2,1.7492,1,1,0.12088,1,1,
32,1.0363,2,1,1,1.0392,1,1,0.23503,1,1,
32,0.69182,2,2,2,1.9463,1,1,0.11828,1,1,
32,0.60679,2,2,2,1.7637,1,1,0.11984,1,1,
32,0.67225,2,2,2,1.5588,1,1,0.12232,1,1,
32,0.5084,2,2,2,1.1838,1,2,0.37889,1,1,
32,1.0346,2,1,1,1.4979,1,2,0.65799,1,1,
32,1.1229,2,2,2,1.5178,1,1,0.1234,1,1,
32,0.65309,2,2,2,1.9942,1,2,0.36437,1,1,
32,0.51087,2,2,2,1.8549,1,1,0.11945,1,1,
32,0.68004,2,1,1,1.9624,1,1,0.23836,1,1,
32,0.59048,2,1,1,1.6789,1,1,0.22525,1,1,
32,0.36703,2,1,1,1.4035,1,1,0.21977,1,1,
32,0.63154,2,2,2,1.935,1,1,0.12224,1,1,
32,0.5897,2,2,1,1.4795,0,2,0.69397,1,1,
32,0.53801,2,1,1,1.2318,1,2,0.67071,1,1,
32,0.40326,2,1,1,1.3963,1,2,0.70841,1,1,
32,0.43413,2,1,1,1.7051,1,2,0.72462,1,1,
32,0.65477,2,1,1,1.2077,0,2,0.71676,0,0,
32,0.40005,2,2,2,1.2193,0,2,0.37746,0,0,
32,0.42106,2,2,2,1.3258,0,1,0.11953,0,0,
32,0.34358,2,1,1,1.0959,0,1,0.23556,0,0,
32,0.39164,2,1,1,1.7475,0,1,0.219,0,0,
32,0.35454,2,2,2,1.7485,0,2,0.36614,0,0,
32,0.29623,2,1,1,1.5433,0,2,0.66553,0,0,
32,0.29565,2,2,2,1.3381,0,1,0.11962,0,0,
32,0.4009,2,2,2,1.8323,0,1,0.12524,0,0,
32,0.41495,2,2,2,1.5526,0,1,0.11624,0,0,
32,0.36781,2,2,2,1.9575,0,1,0.11769,0,0,
32,0.39356,2,1,1,1.8928,0,1,0.22761,0,0,
32,0.44286,2,2,2,1.3565,0,2,0.35444,0,0,
32,0.47276,2,1,1,1.5464,0,2,0.70805,0,0,
32,0.67641,2,2,2,1.3467,0,1,0.12732,0,0,
32,0.41046,2,1,1,1.6228,0,1,0.21927,0,0,
32,0.33083,2,2,2,1.7966,0,2,0.35034,0,0,
32,1.181,2,1,1,1.7459,0,1,0.23342,0,0,
32,0.54814,2,2,2,1.1255,0,1,0.11866,0,0,
32,0.87893,2,1,1,1.8224,0,2,0.72248,0,0,
32,0.68376,2,1,1,1.0252,0,2,0.72236,0,0,
32,NaN,2,0,1,1.4144,NaN,2,0.69554,0,0,
32,0.49208,2,1,1,1.7314,0,1,0.2377,0,0,
32,0.11013,2,1,2,1.7814,1,1,0.11902,0,0,
32,0.43476,2,2,2,1.3673,0,1,0.12222,0,0,
32,0.95187,2,1,1,1.7449,0,1,0.24115,0,0,
32,0.33947,2,2,2,1.8923,0,2,0.3636,0,0,
32,0.56043,2,2,2,1.2426,0,1,0.12653,0,0,
32,0.37645,2,1,1,1.1296,0,2,0.70171,0,0,
32,0.32697,2,1,1,1.2251,0,2,0.68288,0,0,
32,0.81681,2,1,1,1.35,0,2,0.69517,0,0,
32,1.3417,2,1,1,1.2871,0,1,0.23845,0,0,
32,0.51601,2,2,2,1.9275,0,2,0.34881,0,0,
32,0.61173,2,2,2,1.0513,0,1,0.11893,0,0,
32,0.31851,2,1,1,1.5927,0,1,0.24134,0,0,
32,1.0211,2,2,2,1.1629,0,1,0.11903,0,0,
32,0.38081,2,2,2,1.8384,0,2,0.36778,0,0,
32,0.41163,2,1,1,1.1676,0,1,0.23883,0,0,
32,0.39193,2,1,1,1.5022,0,2,0.72428,0,0,
32,0.36626,2,2,2,1.9993,0,2,0.36754,0,0,
32,0.50818,2,2,2,1.3554,0,1,0.11507,0,0,
32,0.48216,2,1,1,1.0471,0,1,0.21618,0,0,
32,0.34227,2,2,2,1.2137,0,2,0.36606,0,0,
32,0.32006,2,2,2,1.3978,0,2,0.36392,0,0,
32,0.40014,2,2,2,1.3337,0,1,0.12695,0,0,
32,0.37801,2,1,1,1.2296,0,2,0.70379,0,0,
32,0.30018,2,1,1,1.9361,0,1,0.23235,0,0,
32,0.31134,2,2,2,1.6832,0,2,0.36209,0,0,
32,0.28546,2,1,1,1.9621,0,2,0.66548,0,0,
32,0.26376,2,2,2,1.438,0,1,0.12695,0,0,
32,0.28642,2,2,2,1.9403,0,2,0.36279,0,0,
32,0.43275,2,1,1,1.0058,0,1,0.21604,0,0,
32,0.35709,2,2,2,1.6103,0,2,0.36937,0,0,
32,0.26064,2,1,1,1.8011,0,2,0.68569,0,0,
32,0.32844,2,2,2,1.233,0,2,0.34324,0,0,
32,0.62475,2,2,2,1.9325,0,1,0.1259,0,0,
32,0.32805,2,1,1,1.7633,0,1,0.22363,0,0,
32,0.45667,2,1,1,1.8264,0,1,0.22106,0,0,
32,0.27253,2,1,1,1.5735,0,2,0.65439,0,0,
32,0.43351,2,2,2,1.7926,0,2,0.35334,0,0,
32,0.49932,2,1,1,1.329,0,2,0.66307,0,0,
32,0.54009,2,2,2,1.2235,0,2,0.36749,0,0,
32,0.5123,2,2,2,1.3124,0,1,0.11451,0,0,
32,0.36593,2,2,2,1.5845,0,1,0.1173,0,0,
32,0.31689,2,2,2,1.8299,0,1,0.11739,0,0,
32,0.381,2,1,1,1.2905,0,2,0.71473,0,0,
32,0.5987,2,1,1,1.4026,0,1,0.22659,0,0,
32,0.44806,2,2,2,1.8621,0,1,0.12397,0,0,
32,0.42911,2,1,1,1.6147,0,2,0.69232,0,0,
32,0.35754,2,2,2,1.9912,0,1,0.12436,0,0,
32,0.30279,2,1,1,1.2037,0,2,0.65439,0,0,
32,0.39306,2,2,2,1.8272,0,1,0.12719,0,0,
32,0.45435,2,2,2,1.6759,0,2,0.37591,0,0,
32,0.62296,2,1,1,1.2489,0,1,0.21655,0,0,
32,0.38992,2,2,2,1.4758,0,2,0.35972,0,0,
32,0.64164,2,2,2,1.3991,0,1,0.11798,0,0,
32,0.32218,2,1,1,1.5994,0,2,0.69446,0,0,
32,0.40554,2,1,1,1.8005,0,2,0.66321,0,0,
32,0.65512,2,2,2,1.1051,0,2,0.36446,0,0,
32,0.59266,2,1,1,1.8214,0,1,0.23077,0,0,
32,0.37238,2,2,2,1.8411,0,2,0.3653,0,0,
32,NaN,2,0,2,1.3545,NaN,1,0.11966,0,0,
32,0.43488,2,1,1,1.4301,0,1,0.21617,0,0,
32,0.42784,2,1,1,1.5722,0,1,0.22841,0,0,
32,0.43516,2,2,2,1.7008,0,2,0.3573,0,0,
32,0.58063,2,1,1,1.7425,0,2,0.65395,0,0,
32,0.38664,2,2,2,1.7579,0,2,0.35946,0,0,
32,0.50564,2,1,1,1.3891,0,2,0.68027,0,0,
32,1.151,2,2,2,1.4293,0,1,0.12108,0,0,
32,0.35343,2,1,1,1.9563,0,1,0.2362,0,0,
32,0.34037,2,1,1,1.573,0,2,0.70014,0,0,
32,0.9982,2,1,1,1.8497,0,1,0.23803,0,0,
32,0.38224,2,2,2,1.2763,0,2,0.34297,0,0,
32,0.63189,2,2,2,1.6223,0,2,0.34965,0,0,
32,0.82077,2,1,1,1.5884,0,1,0.22699,0,0,
32,0.67182,2,1,1,1.9635,0,2,0.72122,0,0,
32,NaN,2,0,1,1.0859,NaN,1,0.23579,0,0,
32,0.41054,2,1,1,1.5005,0,1,0.22678,0,0,
32,0.33866,2,2,2,1.5216,0,2,0.35426,0,0,
32,1.8175,2,2,1,1.0902,1,2,0.65027,0,0,
32,1.3762,2,2,1,1.6983,0,1,0.23698,0,1,
32,0.92608,2,2,1,1.0293,0,1,0.23607,0,1,
32,NaN,2,0,2,1.5279,NaN,2,0.37892,0,1,
32,0.097771,2,2,2,1.0321,1,1,0.11545,0,1,
32,NaN,2,0,2,1.8271,NaN,2,0.36132,0,1,
32,NaN,2,0,1,1.34,NaN,1,0.22556,0,1,
32,0.52749,2,2,2,1.8467,1,1,0.11593,0,1,
32,0.51712,2,2,2,1.2461,1,2,0.36426,0,1,
32,0.4705,2,1,1,1.5815,1,2,0.69255,0,1,
32,0.57646,2,2,1,1.9377,0,2,0.66201,0,1,
32,1.3309,2,1,1,1.0478,1,1,0.22857,0,1,
32,0.49138,2,2,2,1.054,1,1,0.12735,0,1,
32,0.47949,2,1,1,1.0206,1,1,0.22778,0,1,
32,0.89997,2,1,1,1.6815,1,2,0.69965,0,1,
32,0.41835,2,2,2,1.5986,1,2,0.35746,0,1,
32,0.50383,2,2,2,1.114,1,1,0.1141,0,1,
32,0.48508,2,1,1,1.7962,1,1,0.22267,0,1,
32,0.57422,2,2,1,1.6179,0,2,0.70829,0,1,
32,0.54523,2,1,1,1.0702,1,2,0.67215,0,1,
32,0.41666,2,1,1,1.0693,1,2,0.65209,0,1,
32,0.43894,2,1,1,1.136,1,1,0.22834,0,1,
32,0.68528,2,2,2,1.7889,1,1,0.11854,0,1,
32,0.4299,2,2,2,1.0924,1,1,0.12374,0,1,
32,0.34929,2,1,1,1.2379,1,2,0.68608,0,1,
32,0.35789,2,1,1,1.2436,1,1,0.23618,0,1,
32,0.43683,2,2,2,1.1048,1,1,0.12485,0,1,
32,0.45291,2,2,2,1.8584,1,1,0.11615,0,1,
32,0.42567,2,2,2,1.6982,1,2,0.34581,0,1,
32,0.37242,2,2,2,1.7337,1,1,0.1249,0,1,
32,0.63141,2,1,1,1.6505,1,1,0.23169,0,1,
32,0.34297,2,2,2,1.5163,1,2,0.34155,0,1,
32,0.32105,2,1,1,1.3264,1,2,0.71604,0,1,
32,0.37405,2,1,1,1.6618,1,1,0.22845,0,1,
32,0.34995,2,2,2,1.1176,1,2,0.36298,0,1,
32,0.41685,2,2,2,1.1478,1,2,0.36557,0,1,
32,0.42605,2,1,1,1.0198,1,2,0.70495,0,1,
32,0.48273,2,1,1,1.9643,1,2,0.7127,0,1,
32,0.40256,2,2,2,1.9704,1,2,0.35628,0,1,
32,0.40795,2,1,1,1.1239,1,2,0.65219,0,1,
32,0.35416,2,2,2,1.4674,1,1,0.12366,0,1,
32,0.59989,2,2,2,1.6567,1,2,0.3542,0,1,
32,0.39064,2,1,1,1.2902,1,1,0.23714,0,1,
32,0.5314,2,2,2,1.7545,1,1,0.11861,0,1,
32,0.68827,2,2,2,1.5581,1,1,0.12501,0,1,
32,0.38343,2,2,2,1.4278,1,1,0.11597,0,1,
32,0.50938,2,2,2,1.2672,1,1,0.11535,0,1,
32,0.40752,2,2,2,1.7537,1,2,0.37726,0,1,
32,0.42778,2,1,1,1.8984,1,1,0.21638,0,1,
32,0.70263,2,2,2,1.7284,1,2,0.36897,0,1,
32,0.66776,2,1,1,1.4068,1,2,0.70279,0,1,
32,0.39343,2,2,2,1.9383,1,1,0.11951,0,1,
32,0.47033,2,1,1,1.2554,1,2,0.67473,0,1,
32,0.34828,2,2,2,1.5332,1,1,0.12721,0,1,
32,0.64877,2,2,2,1.9548,1,2,0.35694,0,1,
32,0.38887,2,1,1,1.2677,1,1,0.22648,0,1,
32,0.56382,2,1,1,1.2501,1,2,0.65763,0,1,
32,0.97991,2,1,1,1.9277,1,2,0.67057,0,1,
32,0.57841,2,1,1,1.0686,1,1,0.22321,0,1,
32,0.653,2,1,1,1.2994,1,2,0.71592,0,1,
32,0.5562,2,1,1,1.5916,1,1,0.2215,0,1,
32,0.48363,2,2,2,1.2033,1,2,0.35333,0,1,
32,0.67505,2,1,1,1.6359,1,2,0.67699,0,1,
32,0.54883,2,1,1,1.7984,1,2,0.70071,0,1,
32,0.43579,2,2,2,1.5017,1,2,0.3466,0,1,
32,0.41542,2,1,1,1.6508,1,2,0.71401,0,1,
32,0.48212,2,1,1,1.796,1,1,0.21736,0,1,
32,0.39924,2,1,1,1.2334,1,1,0.22704,0,1,
32,0.42791,2,2,2,1.6008,1,2,0.34211,0,1,
32,0.49638,2,2,2,1.1125,1,2,0.3718,0,1,
32,0.41258,2,2,2,1.5158,1,1,0.12318,0,1,
32,0.45728,2,1,1,1.8378,1,1,0.22067,0,1,
32,0.90769,2,2,2,1.9208,1,1,0.12289,0,1,
32,0.86998,2,2,2,1.4982,1,1,0.12117,0,1,
32,1.107,2,2,2,1.2776,1,1,0.12533,0,1,
32,0.56696,2,2,2,1.6525,1,2,0.36356,0,1,
32,0.33931,2,2,2,1.9173,1,2,0.37822,0,1,
32,0.54463,2,2,2,1.5098,1,1,0.11926,0,1,
32,0.39852,2,2,2,1.9742,1,1,0.11842,0,1,
32,0.55124,2,1,1,1.1973,1,2,0.68326,0,1,
32,0.7738,2,1,1,1.1112,1,1,0.22173,0,1,
32,0.4366,2,1,1,1.2974,1,2,0.71878,0,1,
32,0.58736,2,2,2,1.3964,1,1,0.11991,0,1,
32,0.47694,2,2,2,1.4208,1,2,0.35104,0,1,
32,0.6095,2,1,1,1.3115,1,2,0.67874,0,1,
32,0.41052,2,1,1,1.6938,1,1,0.23342,0,1,
32,0.51636,2,2,2,1.0919,1,2,0.35708,0,1,
32,0.39289,2,2,2,1.4021,1,2,0.34813,0,1,
32,0.41196,2,1,1,1.2952,1,1,0.23759,0,1,
32,0.8206,2,2,2,1.3065,1,2,0.36464,0,1,
32,0.50465,2,1,1,1.1056,1,1,0.22475,0,1,
32,0.66764,2,1,1,1.5938,1,2,0.66256,0,1,
32,0.40444,2,2,2,1.2827,1,1,0.11654,0,1,
32,0.60297,2,1,1,1.1552,1,1,0.22863,0,1,
32,0.53591,2,2,2,1.0007,1,2,0.35836,0,1,
32,0.39566,2,2,2,1.2836,1,2,0.37129,0,1,
32,0.59776,2,1,1,1.5508,1,1,0.21704,0,1,
32,0.6155,2,1,1,1.8709,1,2,0.71204,0,1,
32,NaN,2,0,1,1.0423,NaN,1,0.23282,0,1,
32,0.48148,2,2,2,1.9047,1,1,0.11544,0,1,
32,0.42441,2,1,1,1.131,1,2,0.71295,0,1,
32,1.2262,2,1,2,1.0954,1,1,0.11646,1,0,
32,0.52394,2,2,1,1.0356,1,2,0.67497,1,0,
32,0.57246,2,2,1,1.8862,1,1,0.21602,1,0,
32,0.56598,2,1,2,1.2469,1,1,0.11999,1,0,
32,0.95208,2,1,2,1.0089,1,2,0.35426,1,0,
32,0.74651,2,1,2,1.8149,1,1,0.12715,1,0,
32,0.63664,2,2,1,1.1405,1,1,0.2295,1,0,
32,0.55272,2,2,1,1.8799,1,2,0.71196,1,0,
32,0.43351,2,1,2,1.0954,1,1,0.11911,1,0,
32,0.68455,2,1,2,1.3526,1,2,0.35954,1,0,
32,0.38918,2,1,2,1.5934,1,1,0.12498,1,0,
32,0.38737,2,1,2,1.5852,1,2,0.38213,1,0,
32,0.67179,2,2,1,1.6677,1,2,0.68602,1,0,
32,0.5064,2,1,2,1.648,1,1,0.12642,1,0,
32,0.5767,2,2,2,1.4334,0,2,0.37119,1,0,
32,0.73865,2,2,1,1.1398,1,2,0.68946,1,0,
32,0.57554,2,2,1,1.7519,1,2,0.72207,1,0,
32,0.58184,2,2,1,1.2418,1,1,0.23672,1,0,
32,0.49628,2,2,1,1.6505,1,1,0.24044,1,0,
32,0.53739,2,1,2,1.8574,1,1,0.12242,1,0,
32,0.63015,2,2,1,1.0844,1,1,0.2249,1,0,
32,0.49468,2,1,2,1.9721,1,2,0.36015,1,0,
32,0.61312,2,1,2,1.0315,1,1,0.12622,1,0,
32,0.51798,2,2,1,1.8354,1,1,0.21566,1,0,
32,0.60396,2,2,1,1.8357,1,1,0.21921,1,0,
32,0.43637,2,2,1,1.0499,1,2,0.6819,1,0,
32,0.37417,2,2,1,1.5459,1,1,0.22918,1,0,
32,0.50357,2,1,2,1.9432,1,2,0.34327,1,0,
32,0.53467,2,1,2,1.3215,1,1,0.12258,1,0,
32,0.56331,2,1,2,1.8065,1,2,0.37769,1,0,
32,0.62879,2,2,1,1.6014,1,2,0.65407,1,0,
32,0.67297,2,1,2,1.7896,1,1,0.11951,1,0,
32,0.55418,2,2,1,1.7992,1,2,0.66704,1,0,
32,0.52753,2,1,2,1.0496,1,2,0.38187,1,0,
32,0.45596,2,2,1,1.2832,1,2,0.69275,1,0,
32,0.83896,2,1,2,1.6535,1,2,0.35103,1,0,
32,0.80415,2,2,1,1.4897,1,1,0.2186,1,0,
32,0.73295,2,2,1,1.9729,1,2,0.68769,1,0,
32,0.653,2,1,2,1.7485,1,1,0.125,1,0,
32,0.87897,2,1,2,1.5678,1,1,0.12514,1,0,
32,0.9255,2,2,1,1.299,1,1,0.23697,1,0,
32,NaN,2,0,2,1.2561,NaN,1,0.11634,1,0,
32,0.55724,2,1,2,1.8866,1,2,0.36297,1,0,
32,0.84211,2,2,1,1.4468,1,1,0.2381,1,0,
32,0.53761,2,1,2,1.816,1,1,0.11523,1,0,
32,0.52992,2,2,1,1.0983,1,2,0.71278,1,0,
32,0.44964,2,1,2,1.8596,1,2,0.37813,1,0,
32,0.44791,2,2,1,1.0276,1,2,0.66227,1,0,
32,0.51787,2,2,1,1.8992,1,2,0.65161,1,0,
32,0.43259,2,1,2,1.8999,1,2,0.36005,1,0,
32,0.86427,2,1,2,1.5241,1,2,0.37532,1,0,
32,0.73644,2,2,1,1.1202,1,2,0.68172,1,0,
32,NaN,2,0,1,1.1778,NaN,1,0.22579,1,0,
32,0.54286,2,2,1,1.7061,1,1,0.22812,1,0,
32,0.63533,2,2,1,1.8314,1,2,0.65526,1,0,
32,0.49695,2,1,2,1.0348,1,2,0.34615,1,0,
32,0.38004,2,1,2,1.7578,1,1,0.12562,1,0,
32,0.7721,2,2,1,1.9571,1,2,0.69229,1,0,
32,0.67087,2,1,2,1.3429,1,1,0.11716,1,0,
32,0.55076,2,1,2,1.6382,1,1,0.12554,1,0,
32,NaN,2,0,1,1.343,NaN,1,0.21673,1,0,
32,0.61331,2,2,1,1.2165,1,2,0.68081,1,0,
32,0.97,2,2,1,1.7862,1,1,0.23395,1,0,
32,0.84271,2,2,1,1.7231,1,1,0.22386,1,0,
32,0.76687,2,1,2,1.2788,1,2,0.35704,1,0,
32,1.253,2,2,1,1.5824,1,1,0.22875,1,0,
32,1.2242,2,2,1,1.421,1,2,0.7159,1,0,
32,1.5603,2,2,1,1.0921,1,2,0.70641,1,0,
32,1.1655,2,2,1,1.024,1,1,0.21701,1,0,
32,0.63582,2,1,2,1.4911,1,1,0.11735,1,0,
32,0.57235,2,2,1,1.2783,1,2,0.6747,1,0,
32,1.679,2,1,2,1.3398,1,2,0.3766,1,0,
32,0.5173,2,1,2,1.2873,1,2,0.35781,1,0,
32,0.5077,2,1,2,1.1709,1,2,0.35046,1,0,
32,0.78886,2,2,1,1.3993,1,2,0.69187,1,0,
32,0.55445,2,1,2,1.6976,1,2,0.36026,1,0,
32,0.66043,2,2,1,1.2037,1,2,0.71625,1,0,
32,0.47662,2,1,2,1.6663,1,1,0.12655,1,0,
32,1.727,2,1,2,1.4431,1,1,0.12486,1,0,
32,0.85839,2,2,1,1.4333,1,1,0.23359,1,0,
32,1.1235,2,1,2,1.1752,1,1,0.12379,1,0,
32,0.6106,2,1,2,1.1932,1,1,0.12604,1,0,
32,0.69997,2,2,1,1.6164,1,1,0.21691,1,0,
32,NaN,2,0,1,1.269,NaN,1,0.22378,1,0,
32,0.51185,2,2,1,1.5597,1,1,0.21539,1,0,
32,0.54458,2,1,2,1.9448,1,1,0.12501,1,0,
32,0.40513,2,1,2,1.7145,1,2,0.36143,1,0,
32,0.32374,2,1,2,1.6792,1,2,0.3556,1,0,
32,0.63018,2,2,1,1.9594,1,1,0.22098,1,0,
32,0.49319,2,2,1,1.7753,1,1,0.22896,1,0,
32,0.82018,2,1,2,1.6077,1,2,0.35247,1,0,
32,0.82195,2,1,2,1.948,1,1,0.11454,1,0,
32,0.87503,2,2,1,1.0596,1,2,0.65221,1,0,
32,0.54737,2,2,1,1.2687,1,2,0.65096,1,0,
32,1.0993,2,1,2,1.9867,1,1,0.11913,1,0,
32,0.97703,2,2,1,1.7722,1,1,0.21837,1,0,
32,0.68336,2,1,2,1.4754,1,2,0.35876,1,0,
32,0.65095,2,2,1,1.6809,1,2,0.71629,1,0,
32,0.55204,2,1,2,1.4169,1,2,0.35509,1,0,
32,0.80099,2,1,2,1.3801,1,2,0.34567,1,0,
32,1.7192,2,1,1,1.4885,1,2,0.6983,1,1,
32,0.59696,2,1,2,1.1599,0,1,0.11433,1,1,
32,1.515,2,2,2,1.6668,1,1,0.12462,1,1,
32,0.61408,2,2,2,1.0179,1,2,0.36862,1,1,
32,0.5097,2,2,2,1.1197,1,1,0.12672,1,1,
32,0.56733,2,2,2,1.9521,1,1,0.11484,1,1,
32,0.62318,2,1,1,1.9759,1,2,0.71707,1,1,
32,1.1354,2,1,2,1.0309,0,1,0.12051,1,1,
32,NaN,2,0,2,1.4939,NaN,2,0.36593,1,1,
32,0.69723,2,1,1,1.8627,1,1,0.22327,1,1,
32,0.58277,2,2,2,1.2429,1,1,0.11466,1,1,
32,0.39873,2,1,1,1.8343,1,1,0.23744,1,1,
32,0.54259,2,2,1,1.8136,0,1,0.2189,1,1,
32,0.4648,2,1,1,1.629,1,1,0.22467,1,1,
32,1.0563,2,1,1,1.0022,1,1,0.23128,1,1,
32,0.64051,2,2,2,1.3797,1,1,0.12747,1,1,
32,0.83554,2,2,2,1.9044,1,2,0.36184,1,1,
32,0.41278,2,2,2,1.6804,1,2,0.3821,1,1,
32,0.45251,2,1,1,1.3788,1,2,0.66293,1,1,
32,0.55667,2,2,1,1.632,0,2,0.67614,1,1,
32,1.076,2,1,1,1.2433,1,2,0.69979,1,1,
32,0.59296,2,2,1,1.5714,0,1,0.2169,1,1,
32,0.5312,2,1,1,1.9817,1,2,0.70392,1,1,
32,0.45383,2,1,1,1.8497,1,2,0.67789,1,1,
32,0.87042,2,2,2,1.2834,1,2,0.3743,1,1,
32,0.47982,2,1,2,1.6825,0,2,0.35615,1,1,
32,0.56304,2,2,2,1.3581,1,2,0.35367,1,1,
32,0.53703,2,1,1,1.9869,1,2,0.72351,1,1,
32,0.68896,2,1,1,1.084,1,2,0.70153,1,1,
32,0.7217,2,1,1,1.2503,1,1,0.22578,1,1,
32,0.59429,2,2,2,1.8113,1,1,0.11494,1,1,
32,0.5046,2,2,2,1.0844,1,1,0.12367,1,1,
32,0.60955,2,2,2,1.5313,1,1,0.12229,1,1,
32,0.50984,2,2,2,1.8006,1,2,0.34383,1,1,
32,0.62486,2,2,2,1.7388,1,1,0.11523,1,1,
32,0.8523,2,1,1,1.1417,1,2,0.72313,1,1,
32,0.59944,2,1,1,1.4379,1,1,0.22796,1,1,
32,0.61058,2,2,2,1.3504,1,2,0.3418,1,1,
32,0.52382,2,2,2,1.4785,1,2,0.34304,1,1,
32,0.54842,2,2,2,1.5874,1,1,0.1155,1,1,
32,0.80865,2,2,2,1.1458,1,1,0.12595,1,1,
32,0.55366,2,2,2,1.9053,1,2,0.3597,1,1,
32,0.54141,2,1,1,1.6402,1,2,0.68894,1,1,
32,0.91211,2,1,1,1.1629,1,2,0.68369,1,1,
32,0.46665,2,1,1,1.5659,1,1,0.21697,1,1,
32,0.50227,2,1,1,1.9316,1,2,0.71618,1,1,
32,0.41089,2,1,1,1.7831,1,1,0.22256,1,1,
32,0.38052,2,1,1,1.6857,1,1,0.22206,1,1,
32,0.57365,2,1,1,1.4662,1,2,0.69159,1,1,
32,0.30988,2,1,1,1.2603,1,2,0.68223,1,1,
32,0.33115,2,1,1,1.5693,1,2,0.67384,1,1,
32,0.61507,2,1,1,1.2488,1,2,0.6965,1,1,
32,0.50684,2,1,1,1.3193,1,1,0.23984,1,1,
32,0.65777,2,2,2,1.9108,1,1,0.12205,1,1,
32,0.43461,2,2,2,1.8852,1,2,0.3522,1,1,
32,0.35874,2,2,2,1.7946,1,1,0.11636,1,1,
32,0.62407,2,1,1,1.9258,1,1,0.22645,1,1,
32,0.73129,2,1,1,1.1788,1,2,0.64789,1,1,
32,1.0583,2,1,1,1.5175,1,1,0.23814,1,1,
32,0.66693,2,2,2,1.627,1,2,0.36573,1,1,
32,0.64963,2,2,2,1.9132,1,2,0.349,1,1,
32,0.69348,2,2,2,1.664,1,2,0.36195,1,1,
32,0.69236,2,1,1,1.3892,1,2,0.64988,1,1,
32,0.67493,2,1,1,1.74,1,1,0.23775,1,1,
32,0.63648,2,2,2,1.8176,1,1,0.11958,1,1,
32,0.50748,2,2,2,1.6003,1,1,0.12104,1,1,
32,1.2421,2,1,1,1.085,1,1,0.22981,1,1,
32,0.6326,2,1,1,1.9224,1,1,0.23283,1,1,
32,0.63658,2,1,1,1.0536,1,2,0.67408,1,1,
32,0.92238,2,2,2,1.527,1,2,0.344,1,1,
32,1.0406,2,2,2,1.1189,1,1,0.11977,1,1,
32,0.58797,2,1,1,1.3801,1,2,0.64943,1,1,
32,0.60007,2,2,2,1.8128,1,2,0.37116,1,1,
32,0.57095,2,1,1,1.2441,1,1,0.21623,1,1,
32,0.55773,2,2,2,1.8844,1,1,0.12684,1,1,
32,0.60377,2,1,1,1.7126,1,2,0.70349,1,1,
32,0.82338,2,2,2,1.3781,1,1,0.12659,1,1,
32,0.4204,2,2,2,1.2489,1,2,0.36168,1,1,
32,0.62199,2,1,1,1.2529,1,2,0.66403,1,1,
32,0.94329,2,1,1,1.7672,1,1,0.22183,1,1,
32,0.67118,2,2,2,1.0499,1,2,0.37205,1,1,
32,0.50844,2,1,1,1.6853,1,1,0.24137,1,1,
32,0.6781,2,1,1,1.6203,1,1,0.22431,1,1,
32,0.59712,2,1,1,1.7467,1,1,0.23478,1,1,
32,0.55077,2,2,2,1.9773,1,1,0.11509,1,1,
32,0.55741,2,2,2,1.3839,1,1,0.12173,1,1,
32,1.0241,2,1,1,1.2602,1,2,0.67869,1,1,
32,0.46598,2,1,1,1.8775,1,2,0.70255,1,1,
32,0.31108,2,1,1,1.8061,1,1,0.22186,1,1,
32,0.80434,2,2,2,1.4611,1,1,0.11489,1,1,
32,0.44504,2,2,2,1.091,1,2,0.35909,1,1,
32,0.53322,2,1,1,1.5643,1,1,0.23175,1,1,
32,0.61837,2,2,2,1.1874,1,2,0.34614,1,1,
32,0.5081,2,1,1,1.5317,1,1,0.22681,1,1,
32,0.68295,2,2,2,1.355,1,1,0.1225,1,1,
32,0.49432,2,2,2,1.3148,1,1,0.12499,1,1,
32,0.60649,2,2,2,1.7267,1,2,0.35323,1,1,
32,0.44131,2,2,2,1.5158,1,2,0.35708,1,1,
32,0.89291,2,2,2,1.7906,1,2,0.37745,1,1,
32,0.53028,2,2,2,1.2045,1,2,0.36956,1,1,
32,0.75907,2,2,1,1.3568,1,2,0.71876,0,0,
32,0.64451,2,2,1,1.144,1,1,0.23422,0,0,
32,0.38028,2,2,1,1.8506,1,2,0.7041,0,0,
32,0.43224,2,2,1,1.3379,1,1,0.22562,0,0,
32,0.51417,2,1,2,1.2752,1,2,0.35045,0,0,
32,0.53031,2,2,1,1.006,1,1,0.22859,0,0,
32,0.44995,2,2,1,1.8019,1,2,0.66236,0,0,
32,0.44618,2,1,2,1.4974,1,2,0.37564,0,0,
32,0.38466,2,2,1,1.5378,1,1,0.23236,0,0,
32,0.60984,2,2,1,1.8709,1,2,0.7095,0,0,
32,0.37814,2,2,1,1.7228,1,2,0.70767,0,0,
32,0.37147,2,2,1,1.6681,1,1,0.22723,0,0,
32,0.44354,2,1,2,1.1788,1,1,0.11776,0,0,
32,0.39545,2,2,1,1.5505,1,1,0.23302,0,0,
32,0.44242,2,1,2,1.9599,1,2,0.38194,0,0,
32,0.49664,2,1,2,1.596,1,2,0.37252,0,0,
32,0.32619,2,2,1,1.8086,1,1,0.23686,0,0,
32,0.34321,2,1,2,1.9845,1,2,0.36979,0,0,
32,0.46822,2,2,1,1.8859,1,2,0.69168,0,0,
32,0.56135,2,1,2,1.2138,1,1,0.12393,0,0,
32,0.44924,2,1,2,1.0346,1,1,0.12033,0,0,
32,0.5597,2,2,1,1.4511,1,2,0.7135,0,0,
32,0.59809,2,1,2,1.0138,1,2,0.3436,0,0,
32,0.39848,2,2,1,1.4737,1,1,0.24068,0,0,
32,0.79661,2,2,1,1.9512,1,1,0.21775,0,0,
32,0.79577,2,1,2,1.249,1,1,0.12103,0,0,
32,0.54929,2,2,1,1.3864,1,2,0.67653,0,0,
32,0.50978,2,1,2,1.4314,1,2,0.34515,0,0,
32,0.77318,2,1,2,1.8309,1,2,0.37056,0,0,
32,0.53519,2,2,1,1.8246,1,1,0.23105,0,0,
32,0.51704,2,1,2,1.453,1,2,0.37308,0,0,
32,0.40805,2,2,1,1.3806,1,2,0.6894,0,0,
32,0.36987,2,2,1,1.9259,1,1,0.23637,0,0,
32,0.356,2,2,1,1.7408,1,2,0.69021,0,0,
32,0.48714,2,1,2,1.7376,1,2,0.38006,0,0,
32,0.38753,2,1,2,1.9469,1,2,0.3769,0,0,
32,0.57866,2,2,1,1.5101,1,2,0.68473,0,0,
32,0.56519,2,1,2,1.7919,1,1,0.12444,0,0,
32,0.50024,2,1,2,1.4522,1,1,0.12,0,0,
32,0.52078,2,2,1,1.8492,1,2,0.71053,0,0,
32,0.61966,2,1,2,1.3904,1,2,0.35381,0,0,
32,0.40767,2,1,2,1.7384,1,2,0.38147,0,0,
32,0.53891,2,1,2,1.9764,1,1,0.11734,0,0,
32,0.48566,2,1,2,1.5233,1,1,0.1146,0,0,
32,0.54444,2,2,1,1.4299,1,2,0.70421,0,0,
32,0.42944,2,2,1,1.2072,1,1,0.23691,0,0,
32,0.5311,2,2,1,1.3234,1,2,0.71822,0,0,
32,0.63071,2,2,1,1.1109,1,1,0.22355,0,0,
32,0.59624,2,1,2,1.3752,1,1,0.12466,0,0,
32,0.51196,2,2,1,1.3299,1,2,0.68715,0,0,
32,0.51767,2,1,2,1.3421,1,2,0.3596,0,0,
32,0.47292,2,2,1,1.8171,1,1,0.23662,0,0,
32,0.78292,2,1,2,1.5317,1,2,0.3804,0,0,
32,0.42288,2,1,2,1.5211,1,1,0.11464,0,0,
32,0.50409,2,2,1,1.7743,1,2,0.70077,0,0,
32,0.52905,2,1,2,1.1203,1,1,0.11676,0,0,
32,0.6211,2,2,1,1.6255,1,2,0.67621,0,0,
32,0.51955,2,1,2,1.3466,1,1,0.1172,0,0,
32,0.58899,2,2,1,1.3346,1,2,0.71083,0,0,
32,0.61353,2,1,2,1.5746,1,1,0.12744,0,0,
32,0.69009,2,2,1,1.8639,1,1,0.23201,0,0,
32,0.55768,2,1,2,1.1986,1,1,0.12323,0,0,
32,0.75999,2,1,2,1.6725,1,2,0.37955,0,0,
32,0.41106,2,2,1,1.9018,1,1,0.23302,0,0,
32,0.75314,2,2,1,1.1992,1,1,0.22985,0,0,
32,0.58767,2,2,1,1.2983,1,2,0.67481,0,0,
32,0.45876,2,2,1,1.4965,1,1,0.2316,0,0,
32,0.68404,2,1,2,1.8899,1,2,0.35548,0,0,
32,0.54901,2,1,2,1.5014,1,2,0.3573,0,0,
32,0.94461,2,1,2,1.277,1,1,0.11857,0,0,
32,0.38974,2,1,2,1.534,1,2,0.35981,0,0,
32,0.53388,2,1,2,1.5742,1,1,0.12042,0,0,
32,0.55704,2,2,1,1.4128,1,2,0.71724,0,0,
32,0.36779,2,2,1,1.0148,1,2,0.66139,0,0,
32,0.52582,2,1,2,1.7028,1,2,0.35447,0,0,
32,0.42413,2,1,2,1.5067,1,1,0.1214,0,0,
32,0.52261,2,1,2,1.3813,1,1,0.12019,0,0,
32,0.54781,2,2,1,1.0649,1,2,0.66566,0,0,
32,0.40991,2,1,2,1.3586,1,1,0.12148,0,0,
32,0.45117,2,2,1,1.2343,1,1,0.2382,0,0,
32,0.59838,2,2,1,1.2035,1,1,0.2168,0,0,
32,0.51019,2,1,2,1.8138,1,1,0.11956,0,0,
32,0.38235,2,1,2,1.3934,1,2,0.34424,0,0,
32,0.34103,2,1,2,1.0536,1,2,0.36376,0,0,
32,0.26268,2,1,2,1.3751,1,2,0.36276,0,0,
32,0.44838,2,2,1,1.775,1,1,0.23519,0,0,
32,0.62243,2,1,2,1.1653,1,1,0.11673,0,0,
32,0.54814,2,1,2,1.9122,1,2,0.36477,0,0,
32,0.54024,2,2,1,1.3192,1,2,0.68091,0,0,
32,0.46348,2,2,1,1.3298,1,1,0.23772,0,0,
32,0.41014,2,1,2,1.2042,1,1,0.12262,0,0,
32,0.46991,2,1,2,1.7672,1,1,0.11837,0,0,
32,0.52968,2,2,1,1.07,1,2,0.6722,0,0,
32,0.65585,2,2,1,1.95,1,1,0.22167,0,0,
32,0.49284,2,1,2,1.1582,1,1,0.12681,0,0,
32,1.0977,2,1,2,1.2864,1,2,0.35283,0,0,
32,0.36336,2,2,1,1.6871,1,1,0.21925,0,0,
32,0.98519,2,1,2,1.1411,1,1,0.11847,0,0,
32,0.40146,2,2,1,1.5121,1,1,0.23448,0,0,
32,0.58199,2,2,1,1.7213,1,2,0.70054,0,0,
32,0.65943,2,2,2,1.0523,1,1,0.12277,0,1,
32,0.30607,2,1,1,1.5568,1,2,0.66849,0,1,
32,0.3753,2,2,2,1.712,1,2,0.36242,0,1,
32,0.38118,2,1,1,1.4879,1,2,0.64597,0,1,
32,0.36056,2,2,2,1.6176,1,2,0.37743,0,1,
32,0.75626,2,1,1,1.2138,1,2,0.67664,0,1,
32,0.62441,2,1,1,1.6457,1,1,0.22288,0,1,
32,0.34855,2,1,1,1.3806,1,2,0.72056,0,1,
32,0.48332,2,2,2,1.1037,1,1,0.11983,0,1,
32,0.5668,2,2,2,1.3775,1,1,0.11747,0,1,
32,0.42264,2,1,1,1.2629,1,2,0.65218,0,1,
32,1.3604,2,2,2,1.2413,1,2,0.36455,0,1,
32,0.40572,2,1,1,1.6229,1,1,0.21911,0,1,
32,0.41292,2,2,2,1.5229,1,2,0.3438,0,1,
32,0.48404,2,1,1,1.4132,1,1,0.23017,0,1,
32,0.43871,2,1,1,1.2178,1,2,0.66756,0,1,
32,0.40267,2,1,1,1.8586,1,1,0.22445,0,1,
32,0.52533,2,2,2,1.861,1,2,0.37059,0,1,
32,0.52322,2,2,2,1.2839,1,1,0.12544,0,1,
32,0.30829,2,1,1,1.6154,1,1,0.22409,0,1,
32,0.67049,2,2,2,1.7795,1,1,0.12695,0,1,
32,0.46402,2,1,1,1.9548,1,1,0.24027,0,1,
32,0.61577,2,1,1,1.9196,1,1,0.22046,0,1,
32,0.6507,2,1,1,1.3848,1,1,0.2352,0,1,
32,0.43373,2,2,2,1.1626,1,2,0.36595,0,1,
32,0.43203,2,1,1,1.7968,1,2,0.71794,0,1,
32,0.76797,2,1,1,1.1138,1,2,0.69226,0,1,
32,0.47865,2,2,2,1.1588,1,1,0.12321,0,1,
32,0.64365,2,2,2,1.3558,1,1,0.1238,0,1,
32,0.43504,2,1,1,1.8478,1,2,0.67514,0,1,
32,0.35858,2,1,1,1.5828,1,1,0.22161,0,1,
32,0.61566,2,2,2,1.5862,1,2,0.34236,0,1,
32,0.41397,2,1,1,1.9258,1,1,0.22731,0,1,
32,0.41098,2,1,1,1.5751,1,2,0.69565,0,1,
32,0.44465,2,1,1,1.01,1,2,0.66694,0,1,
32,0.64627,2,2,2,1.8094,1,1,0.12062,0,1,
32,0.46276,2,1,1,1.6088,1,2,0.66439,0,1,
32,0.51771,2,1,1,1.4799,1,1,0.22279,0,1,
32,0.45475,2,1,1,1.2684,1,2,0.69609,0,1,
32,0.64959,2,2,2,1.2581,1,2,0.37776,0,1,
32,0.6462,2,2,2,1.481,1,2,0.37645,0,1,
32,0.65613,2,2,2,1.2273,1,2,0.34926,0,1,
32,0.54983,2,2,2,1.0486,1,2,0.35695,0,1,
32,NaN,2,0,1,1.1692,NaN,1,0.23846,0,1,
32,1.0678,2,1,1,1.2584,1,1,0.22174,0,1,
32,0.52525,2,1,1,1.1979,1,2,0.7219,0,1,
32,0.40741,2,1,1,1.6057,1,2,0.69358,0,1,
32,0.46069,2,1,1,1.8237,1,1,0.21942,0,1,
32,0.78338,2,2,2,1.8106,1,2,0.37494,0,1,
32,0.63187,2,2,2,1.8022,1,2,0.36765,0,1,
32,1.3066,2,1,1,1.7081,1,1,0.22927,0,1,
32,0.53938,2,2,2,1.8594,1,1,0.11698,0,1,
32,0.50007,2,2,2,1.7811,1,1,0.11417,0,1,
32,0.48373,2,2,2,1.2038,1,2,0.3502,0,1,
32,0.38942,2,1,1,1.9933,1,1,0.22443,0,1,
32,0.41298,2,2,2,1.0936,1,1,0.12224,0,1,
32,0.47211,2,1,1,1.6506,1,1,0.24117,0,1,
32,0.52517,2,2,2,1.2152,1,1,0.11638,0,1,
32,0.64977,2,2,2,1.2439,1,1,0.12399,0,1,
32,0.74575,2,2,2,1.3397,1,1,0.12585,0,1,
32,1.01,2,1,1,1.1979,1,2,0.68195,0,1,
32,0.95991,2,2,2,1.5068,1,1,0.11574,0,1,
32,0.46845,2,1,1,1.9508,1,1,0.23635,0,1,
32,0.54803,2,2,2,1.3946,1,2,0.36014,0,1,
32,0.4398,2,1,1,1.5845,1,1,0.21819,0,1,
32,0.48362,2,2,2,1.6065,1,2,0.37708,0,1,
32,0.9741,2,2,2,1.7146,1,2,0.36678,0,1,
32,0.48356,2,2,2,1.4015,1,2,0.34476,0,1,
32,0.39206,2,1,1,1.8587,1,1,0.23902,0,1,
32,0.49021,2,2,2,1.9205,1,1,0.1141,0,1,
32,0.40538,2,2,2,1.7508,1,2,0.34248,0,1,
32,0.45981,2,2,2,1.2856,1,1,0.12734,0,1,
32,0.409,2,1,1,1.7968,1,1,0.23298,0,1,
32,0.54749,2,1,1,1.1428,1,2,0.67449,0,1,
32,0.63537,2,2,2,1.5046,1,2,0.3613,0,1,
32,0.59921,2,2,2,1.6107,1,1,0.12408,0,1,
32,0.32628,2,1,1,1.7038,1,2,0.64951,0,1,
32,1.0568,2,1,1,1.3833,1,1,0.23405,0,1,
32,0.38279,2,2,2,1.7287,1,1,0.1232,0,1,
32,0.69673,2,1,1,1.8873,1,2,0.6809,0,1,
32,0.85574,2,1,1,1.0558,1,1,0.23021,0,1,
32,0.55931,2,2,2,1.1382,1,1,0.11816,0,1,
32,0.5761,2,2,2,1.8631,1,2,0.34768,0,1,
32,0.55327,2,1,1,1.4217,1,1,0.22541,0,1,
32,0.47154,2,2,2,1.4113,1,1,0.12633,0,1,
32,0.48591,2,2,2,1.9591,1,2,0.34991,0,1,
32,0.33332,2,1,1,1.7502,1,2,0.67327,0,1,
32,0.56707,2,2,2,1.981,1,2,0.3539,0,1,
32,1.3155,2,2,2,1.2335,1,2,0.34422,0,1,
32,0.34878,2,1,1,1.0962,1,2,0.68513,0,1,
32,0.52813,2,2,2,1.3846,1,2,0.37523,0,1,
32,0.44189,2,2,2,1.5003,1,1,0.12611,0,1,
32,0.3706,2,2,2,1.5703,1,1,0.12351,0,1,
32,0.8869,2,2,2,1.9766,1,1,0.11876,0,1,
32,0.4439,2,1,1,1.4929,1,2,0.66841,0,1,
32,0.49308,2,1,1,1.4009,1,2,0.6994,0,1,
32,1.1017,2,1,1,1.995,1,2,0.71476,0,1,
32,0.98746,2,1,1,1.261,1,2,0.7184,0,1,
32,0.42716,2,1,1,1.6653,1,1,0.21731,0,1,
32,0.56332,2,2,2,1.9643,1,1,0.12013,0,1,
32,0.59985,2,1,2,1.8687,1,1,0.1158,1,0,
32,0.71503,2,1,2,1.5286,1,1,0.12613,1,0,
32,0.61684,2,2,1,1.9141,1,1,0.21721,1,0,
32,0.94757,2,2,1,1.9739,1,1,0.22384,1,0,
32,0.63992,2,2,1,1.5854,1,1,0.23017,1,0,
32,0.84037,2,2,1,1.119,1,1,0.22739,1,0,
32,0.54458,2,1,2,1.9265,1,2,0.37404,1,0,
32,0.72423,2,1,2,1.5936,1,2,0.3624,1,0,
32,0.81771,2,2,1,1.8836,1,1,0.221,1,0,
32,0.44802,2,2,1,1.4245,1,1,0.23361,1,0,
32,NaN,2,0,1,1.6073,NaN,2,0.65701,1,0,
32,0.36451,2,1,2,1.0708,1,2,0.36775,1,0,
32,0.3476,2,1,2,1.9248,1,2,0.36673,1,0,
32,0.54079,2,1,2,1.6421,1,1,0.11668,1,0,
32,0.46276,2,1,2,1.1045,1,1,0.11605,1,0,
32,0.58598,2,2,1,1.7002,1,1,0.21945,1,0,
32,0.51665,2,1,2,1.3958,1,2,0.34684,1,0,
32,0.9341,2,1,2,1.0849,1,2,0.34897,1,0,
32,0.56136,2,2,1,1.2145,1,1,0.24031,1,0,
32,0.87421,2,1,2,1.2488,1,1,0.11385,1,0,
32,0.69115,2,2,1,1.2267,1,1,0.24038,1,0,
32,0.55367,2,2,1,1.703,1,2,0.64777,1,0,
32,1.4658,2,2,1,1.7542,1,1,0.24075,1,0,
32,0.50577,2,2,1,1.5473,1,2,0.66837,1,0,
32,1.2691,2,2,2,1.5535,0,2,0.36216,1,0,
32,0.56382,2,1,2,1.6306,1,1,0.1255,1,0,
32,0.69868,2,2,1,1.9855,1,2,0.71608,1,0,
32,0.66118,2,1,2,1.6343,1,2,0.34842,1,0,
32,0.92362,2,2,1,1.6005,1,2,0.69691,1,0,
32,0.52479,2,2,1,1.9092,1,2,0.71978,1,0,
32,0.70978,2,2,1,1.5708,1,1,0.24088,1,0,
32,0.58354,2,1,2,1.3354,1,2,0.34518,1,0,
32,0.83911,2,1,2,1.9571,1,1,0.116,1,0,
32,0.99755,2,1,2,1.4399,1,1,0.12384,1,0,
32,0.60226,2,2,1,1.6015,1,2,0.64955,1,0,
32,0.87321,2,2,1,1.7203,1,2,0.65118,1,0,
32,0.51058,2,2,1,1.6788,1,2,0.68328,1,0,
32,0.70383,2,2,1,1.2128,1,1,0.23742,1,0,
32,0.40077,2,2,1,1.0816,1,1,0.24147,1,0,
32,0.57181,2,1,2,1.2745,1,2,0.34109,1,0,
32,0.47934,2,1,2,1.8675,1,1,0.12097,1,0,
32,0.41871,2,1,2,1.5594,1,2,0.37646,1,0,
32,0.68579,2,2,1,1.4646,1,2,0.71713,1,0,
32,0.38705,2,1,2,1.4303,1,2,0.37577,1,0,
32,0.82948,2,1,2,1.774,1,1,0.12574,1,0,
32,0.73701,2,1,2,1.6539,1,1,0.12383,1,0,
32,0.49399,2,2,1,1.6577,1,2,0.65466,1,0,
32,0.97531,2,1,2,1.161,1,2,0.36149,1,0,
32,0.62197,2,1,2,1.4324,1,1,0.11587,1,0,
32,0.43825,2,1,2,1.5051,1,1,0.12505,1,0,
32,0.59451,2,2,1,1.3753,1,2,0.71869,1,0,
32,1.0366,2,2,1,1.4804,1,2,0.65859,1,0,
32,0.46817,2,1,2,1.3424,1,2,0.37743,1,0,
32,0.64952,2,2,1,1.7771,1,2,0.67536,1,0,
32,0.75314,2,1,2,1.3839,1,1,0.11876,1,0,
32,1.1068,2,1,2,1.7116,1,2,0.35174,1,0,
32,1.0275,2,1,2,1.4809,1,2,0.37674,1,0,
32,NaN,2,0,1,1.7292,NaN,1,0.23447,1,0,
32,1.622,2,2,1,1.9376,1,1,0.22668,1,0,
32,0.61796,2,1,2,1.5173,1,2,0.36994,1,0,
32,0.78806,2,1,2,1.9031,1,1,0.12669,1,0,
32,0.50339,2,2,1,1.2182,1,1,0.21965,1,0,
32,0.45713,2,1,2,1.8732,1,1,0.11689,1,0,
32,0.56515,2,2,1,1.0827,1,2,0.69532,1,0,
32,0.50994,2,2,1,1.4654,1,2,0.70888,1,0,
32,0.57728,2,2,1,1.0219,1,1,0.23751,1,0,
32,0.66606,2,2,1,1.8083,1,1,0.22538,1,0,
32,0.65878,2,1,2,1.1792,1,1,0.11516,1,0,
32,0.70717,2,2,1,1.1654,1,1,0.21729,1,0,
32,0.59572,2,2,1,1.1816,1,2,0.67323,1,0,
32,0.82657,2,1,2,1.6914,1,2,0.37506,1,0,
32,0.52397,2,1,2,1.2138,1,2,0.34945,1,0,
32,0.66883,2,2,1,1.2981,1,2,0.70744,1,0,
32,0.65912,2,1,2,1.7683,1,1,0.12254,1,0,
32,0.58849,2,2,1,1.5012,1,2,0.64781,1,0,
32,0.038428,2,1,1,1.9095,0,1,0.23567,1,0,
32,0.16146,2,2,2,1.0579,0,2,0.37912,1,0,
32,0.53642,2,1,2,1.4368,1,2,0.3608,1,0,
32,0.51225,2,2,1,1.5723,1,1,0.23698,1,0,
32,0.68327,2,2,1,1.5651,1,1,0.21857,1,0,
32,0.45962,2,1,2,1.8238,1,1,0.12403,1,0,
32,0.56331,2,2,1,1.1261,1,2,0.7185,1,0,
32,0.64866,2,1,2,1.3001,1,1,0.12507,1,0,
32,0.54782,2,1,2,1.0021,1,1,0.11708,1,0,
32,0.65265,2,1,2,1.9511,1,1,0.11646,1,0,
32,0.58796,2,1,2,1.7663,1,1,0.12068,1,0,
32,0.48705,2,1,2,1.7513,1,2,0.35688,1,0,
32,0.66329,2,2,1,1.1389,1,1,0.2275,1,0,
32,0.61826,2,2,1,1.3493,1,2,0.72416,1,0,
32,0.61007,2,1,2,1.1513,1,2,0.36549,1,0,
32,0.44777,2,2,1,1.4967,1,2,0.72009,1,0,
32,0.53095,2,1,2,1.8087,1,1,0.12024,1,0,
32,0.63185,2,2,1,1.6329,1,1,0.22642,1,0,
32,0.59621,2,2,1,1.6884,1,2,0.70595,1,0,
32,0.62593,2,2,1,1.6396,1,2,0.70363,1,0,
32,0.57697,2,2,1,1.7293,1,2,0.67965,1,0,
32,0.5591,2,2,1,1.8598,1,1,0.2166,1,0,
32,0.64116,2,1,2,1.627,1,1,0.11479,1,0,
32,0.37447,2,1,2,1.1806,1,2,0.37372,1,0,
32,0.51175,2,1,2,1.5733,1,2,0.36765,1,0,
32,0.46136,2,1,2,1.0516,0,2,0.35931,1,1,
32,0.55564,2,2,1,1.5041,0,2,0.67962,1,1,
32,0.46709,2,1,2,1.7684,0,1,0.11974,1,1,
32,NaN,2,0,2,1.283,NaN,2,0.38011,1,1,
32,1.2365,2,2,2,1.2254,1,2,0.34963,1,1,
32,0.49535,2,1,1,1.3313,1,1,0.23831,1,1,
32,0.82692,2,1,1,1.4533,1,2,0.64734,1,1,
32,0.50766,2,1,1,1.7374,1,2,0.67178,1,1,
32,0.66616,2,2,2,1.5099,1,1,0.12412,1,1,
32,0.725,2,2,2,1.3825,1,2,0.35464,1,1,
32,0.63313,2,1,1,1.9055,1,1,0.23118,1,1,
32,0.4697,2,1,1,1.9653,1,2,0.68044,1,1,
32,0.48073,2,1,1,1.6283,1,2,0.64662,1,1,
32,0.39331,2,1,1,1.132,1,2,0.69198,1,1,
32,0.68394,2,2,2,1.6183,1,1,0.12179,1,1,
32,1.1347,2,2,2,1.383,1,1,0.12246,1,1,
32,0.56589,2,2,2,1.9912,1,1,0.11821,1,1,
32,NaN,2,0,2,1.2868,NaN,2,0.36084,1,1,
32,0.41089,2,2,2,1.7062,1,1,0.1232,1,1,
32,0.58557,2,1,1,1.5352,1,2,0.71537,1,1,
32,0.62261,2,2,2,1.1932,1,2,0.34309,1,1,
32,0.39335,2,2,2,1.6894,1,1,0.11493,1,1,
32,0.64557,2,2,2,1.0505,1,2,0.3674,1,1,
32,0.70835,2,2,2,1.1844,1,2,0.37227,1,1,
32,0.69962,2,1,1,1.0457,1,1,0.24122,1,1,
32,0.73017,2,2,2,1.885,1,1,0.11529,1,1,
32,0.53311,2,1,1,1.8398,1,1,0.22451,1,1,
32,0.80422,2,2,2,1.1182,1,2,0.36852,1,1,
32,1.0494,2,2,1,1.4104,0,1,0.22481,1,1,
32,0.69411,2,2,2,1.1202,1,2,0.37655,1,1,
32,0.54892,2,1,1,1.5721,1,2,0.66794,1,1,
32,0.69808,2,2,2,1.9494,1,2,0.3462,1,1,
32,0.51222,2,1,1,1.2564,1,2,0.69787,1,1,
32,1.257,2,2,2,1.9899,1,1,0.11632,1,1,
32,0.59052,2,2,2,1.3498,1,2,0.37677,1,1,
32,0.64485,2,2,2,1.2085,1,1,0.1239,1,1,
32,0.58429,2,1,1,1.6658,1,2,0.67781,1,1,
32,1.4648,2,1,2,1.9733,0,1,0.11364,1,1,
32,0.82744,2,1,1,1.6227,1,2,0.65707,1,1,
32,0.81564,2,1,1,1.0635,1,2,0.66655,1,1,
32,0.5949,2,2,2,1.3735,1,2,0.37694,1,1,
32,0.64132,2,2,2,1.1663,1,1,0.12178,1,1,
32,0.70215,2,1,1,1.2313,1,2,0.67019,1,1,
32,0.8833,2,1,1,1.0522,1,2,0.66735,1,1,
32,0.73046,2,2,2,1.9018,1,1,0.11948,1,1,
32,0.64705,2,2,2,1.7933,1,2,0.3783,1,1,
32,0.70594,2,2,2,1.373,1,1,0.12641,1,1,
32,0.79129,2,2,2,1.8321,1,2,0.36134,1,1,
32,0.62074,2,1,1,1.7538,1,2,0.69425,1,1,
32,1.4996,2,2,2,1.6219,1,1,0.12345,1,1,
32,1.5191,2,2,1,1.3941,0,1,0.21588,1,1,
32,0.64144,2,2,2,1.3593,1,1,0.12142,1,1,
32,0.7198,2,2,2,1.0889,1,1,0.11425,1,1,
32,0.65724,2,1,1,1.3417,1,2,0.67806,1,1,
32,0.89024,2,2,2,1.5487,1,1,0.11993,1,1,
32,0.74922,2,1,1,1.4605,1,2,0.64755,1,1,
32,0.7157,2,1,1,1.6455,1,1,0.21691,1,1,
32,0.603,2,1,1,1.5135,1,1,0.23945,1,1,
32,0.46934,2,1,1,1.8144,1,1,0.22894,1,1,
32,0.43394,2,1,1,1.0972,1,1,0.22457,1,1,
32,0.61325,2,2,2,1.4637,1,2,0.35551,1,1,
32,0.43545,2,2,2,1.5898,1,2,0.34691,1,1,
32,0.84827,2,2,1,1.1872,0,1,0.21903,1,1,
32,1.3429,2,2,1,1.6113,0,1,0.22416,1,1,
32,0.52915,2,2,1,1.0519,0,2,0.67133,1,1,
32,0.6482,2,1,2,1.5757,0,2,0.37312,1,1,
32,0.5967,2,2,1,1.8423,0,1,0.2277,1,1,
32,0.43432,2,1,2,1.4997,0,1,0.11989,1,1,
32,0.54264,2,2,1,1.439,0,2,0.6557,1,1,
32,0.86093,2,2,1,1.1491,0,2,0.71525,1,1,
32,0.58339,2,1,2,1.0283,0,2,0.36845,1,1,
32,0.7765,2,2,1,1.7567,0,1,0.23702,1,1,
32,0.60224,2,2,1,1.7961,0,2,0.69657,1,1,
32,0.41713,2,2,1,1.2936,0,2,0.72333,1,1,
32,0.61829,2,1,2,1.1152,0,2,0.38163,1,1,
32,0.65407,2,2,1,1.3751,0,1,0.22158,1,1,
32,0.56239,2,2,1,1.8289,0,1,0.23134,1,1,
32,0.59788,2,2,1,1.8418,0,1,0.23412,1,1,
32,0.5186,2,1,2,1.6652,0,2,0.36104,1,1,
32,0.71121,2,2,1,1.9601,0,1,0.23742,1,1,
32,0.66806,2,1,2,1.9431,0,1,0.11617,1,1,
32,0.73878,2,1,2,1.1127,0,2,0.34583,1,1,
32,0.55364,2,2,1,1.6483,0,2,0.64607,1,1,
32,0.52421,2,2,1,1.4808,0,2,0.65734,1,1,
32,0.71564,2,2,1,1.0665,0,1,0.22894,1,1,
32,0.50607,2,1,2,1.8978,0,2,0.36156,1,1,
32,0.54613,2,1,2,1.4972,0,1,0.11879,1,1,
32,0.47422,2,1,2,1.7713,0,2,0.35333,1,1,
32,1.0842,2,1,1,1.0604,1,1,0.21538,1,1,
32,0.50626,2,2,1,1.2625,0,1,0.23647,1,1,
32,0.65546,2,1,2,1.6511,0,1,0.12231,1,1,
32,0.58319,2,2,1,1.1336,0,1,0.22669,1,1,
32,0.70195,2,1,2,1.6385,0,2,0.35063,1,1,
32,0.68702,2,2,1,1.3849,0,2,0.70845,1,1,
32,0.43316,2,1,2,1.7657,0,1,0.12495,1,1,
32,NaN,2,0,1,1.6529,NaN,1,0.23748,1,1,
32,0.94149,2,2,1,1.3815,0,1,0.22719,1,1,
32,0.44198,2,1,2,1.3,0,1,0.12708,1,1,
32,0.67594,2,2,1,1.3401,0,1,0.23718,1,1,
32,0.3804,2,1,2,1.9189,0,1,0.11467,1,1,
32,0.51342,2,1,1,1.6888,0,2,0.70554,0,0,
32,0.40622,2,2,1,1.1474,1,2,0.66213,0,0,
32,0.33033,2,2,1,1.7776,1,1,0.21613,0,0,
32,0.38962,2,2,1,1.3991,1,2,0.67915,0,0,
32,0.72717,2,1,2,1.8983,1,2,0.37975,0,0,
32,0.56911,2,2,1,1.307,1,1,0.22188,0,0,
32,0.63519,2,2,1,1.0611,1,2,0.68965,0,0,
32,0.38675,2,2,1,1.2195,1,2,0.67316,0,0,
32,0.53276,2,1,2,1.0828,1,2,0.34197,0,0,
32,0.51707,2,2,1,1.9504,1,2,0.68416,0,0,
32,0.76079,2,2,1,1.0164,1,1,0.23679,0,0,
32,0.38824,2,2,1,1.1147,1,1,0.2218,0,0,
32,NaN,2,0,1,1.0124,NaN,1,0.21643,0,0,
32,0.49174,2,2,1,1.2162,1,2,0.66445,0,0,
32,0.56142,2,2,1,1.0114,1,2,0.69691,0,0,
32,0.56838,2,1,2,1.6424,1,2,0.3541,0,0,
32,0.57728,2,2,1,1.517,1,1,0.23227,0,0,
32,0.59149,2,2,1,1.2455,1,2,0.64683,0,0,
32,0.36615,2,2,1,1.1937,1,1,0.23384,0,0,
32,0.5975,2,2,1,1.0909,1,2,0.67561,0,0,
32,0.52428,2,2,1,1.3684,1,1,0.21612,0,0,
32,0.52568,2,2,1,1.0078,1,1,0.22559,0,0,
32,0.72869,2,1,2,1.6027,1,1,0.12341,0,0,
32,0.41335,2,1,2,1.4789,1,1,0.12636,0,0,
32,0.46567,2,1,2,1.3081,1,2,0.38181,0,0,
32,0.34373,2,1,2,1.7444,1,2,0.38179,0,0,
32,0.44792,2,2,1,1.8393,1,2,0.71607,0,0,
32,0.56344,2,2,1,1.2624,1,1,0.23785,0,0,
32,0.48507,2,1,2,1.5142,1,2,0.37385,0,0,
32,0.42558,2,1,2,1.4468,1,1,0.12114,0,0,
32,0.40821,2,1,2,1.3412,1,2,0.35776,0,0,
32,0.43431,2,1,2,1.8391,1,1,0.11531,0,0,
32,0.52362,2,1,2,1.9825,1,2,0.36761,0,0,
32,0.55569,2,1,2,1.6265,1,2,0.37657,0,0,
32,0.57931,2,2,1,1.1813,1,2,0.66661,0,0,
32,1.2698,2,2,1,1.123,1,2,0.71146,0,0,
32,0.44485,2,2,1,1.58,1,2,0.65114,0,0,
32,0.56974,2,1,2,1.3285,1,1,0.11871,0,0,
32,0.53314,2,2,1,1.2682,1,2,0.66611,0,0,
32,0.50098,2,1,2,1.5502,1,2,0.34697,0,0,
32,NaN,2,0,1,1.1805,NaN,1,0.23151,0,0,
32,0.53883,2,2,1,1.6785,1,2,0.66982,0,0,
32,0.58724,2,2,1,1.0557,1,2,0.72127,0,0,
32,0.56759,2,1,2,1.0341,1,1,0.12035,0,0,
32,0.41842,2,1,2,1.2865,1,1,0.12373,0,0,
32,0.39555,2,1,2,1.0774,1,1,0.11381,0,0,
32,0.39505,2,1,2,1.9006,1,1,0.12184,0,0,
32,0.36402,2,1,2,1.8466,1,2,0.36431,0,0,
32,0.25209,2,1,2,1.3957,1,1,0.12471,0,0,
32,0.47201,2,2,1,1.1692,1,2,0.69645,0,0,
32,0.39314,2,1,2,1.4305,1,1,0.12573,0,0,
32,1.1106,2,1,2,1.4162,1,2,0.37824,0,0,
32,0.40383,2,1,2,1.7288,1,1,0.11565,0,0,
32,0.35601,2,1,2,1.4065,1,2,0.34856,0,0,
32,0.49999,2,1,2,1.9518,1,1,0.12447,0,0,
32,0.42226,2,1,2,1.912,1,1,0.11444,0,0,
32,0.3275,2,1,2,1.9514,1,2,0.35657,0,0,
32,0.53789,2,2,1,1.346,1,2,0.66856,0,0,
32,0.52155,2,2,1,1.2902,1,1,0.23428,0,0,
32,0.61228,2,1,2,1.8867,1,1,0.11501,0,0,
32,0.54037,2,2,1,1.21,1,1,0.23586,0,0,
32,0.6669,2,2,1,1.1309,1,2,0.70677,0,0,
32,0.3924,2,1,2,1.5205,1,2,0.36247,0,0,
32,0.44721,2,1,2,1.9055,1,2,0.35101,0,0,
32,0.49658,2,2,1,1.4025,1,1,0.21705,0,0,
32,0.50657,2,2,1,1.2158,1,2,0.69411,0,0,
32,0.59679,2,2,1,1.0787,1,1,0.2159,0,0,
32,0.44457,2,2,1,1.9331,1,2,0.65049,0,0,
32,0.51825,2,2,1,1.6029,1,1,0.21852,0,0,
32,0.51891,2,1,2,1.3775,1,2,0.35907,0,0,
32,0.42665,2,1,2,1.6649,1,2,0.36836,0,0,
32,0.3618,2,1,2,1.7922,1,2,0.37623,0,0,
32,0.48991,2,2,1,1.3335,1,1,0.228,0,0,
32,0.53594,2,2,1,1.6927,1,2,0.6495,0,0,
32,0.51589,2,1,2,1.2038,1,2,0.35346,0,0,
32,0.49373,2,2,1,1.9587,1,1,0.23179,0,0,
32,0.39955,2,1,2,1.7118,1,1,0.12441,0,0,
32,0.41984,2,2,1,1.1669,1,2,0.66772,0,0,
32,0.65595,2,1,2,1.4428,1,1,0.12034,0,0,
32,0.61482,2,1,2,1.633,1,1,0.12487,0,0,
32,0.55582,2,1,2,1.93,1,2,0.3651,0,0,
32,0.58193,2,1,2,1.5293,1,2,0.36264,0,0,
32,0.52518,2,1,2,1.6265,1,2,0.35416,0,0,
32,0.61413,2,1,2,1.6808,1,1,0.11916,0,0,
32,0.40157,2,1,2,1.9232,1,1,0.12452,0,0,
32,0.69409,2,2,1,1.1528,1,1,0.22396,0,0,
32,0.71491,2,2,1,1.4057,1,1,0.22706,0,0,
32,0.58731,2,1,2,1.3125,1,2,0.35567,0,0,
32,0.44202,2,1,2,1.6939,1,1,0.12289,0,0,
32,0.4254,2,2,1,1.8907,1,1,0.22983,0,0,
32,0.53367,2,1,2,1.4907,1,2,0.36748,0,0,
32,0.50728,2,1,2,1.8058,1,1,0.12025,0,0,
32,0.66267,2,2,1,1.3264,1,1,0.22539,0,0,
32,0.54338,2,2,1,1.5499,1,1,0.22745,0,0,
32,0.5053,2,2,1,1.3888,1,1,0.21694,0,0,
32,0.59123,2,1,2,1.8968,1,1,0.11915,0,0,
32,0.38872,2,2,1,1.6761,1,1,0.2407,0,0,
32,0.44614,2,1,2,1.8284,1,1,0.12433,0,0,
32,0.34888,2,2,1,1.1101,1,2,0.70241,0,0,
32,0.39859,2,1,2,1.2792,1,1,0.12411,0,0,
32,0.60988,2,1,1,1.9429,1,1,0.23877,0,1,
32,0.34415,2,1,1,1.0966,1,1,0.22922,0,1,
32,0.36609,2,1,1,1.8459,1,2,0.71647,0,1,
32,0.58216,2,2,2,1.9094,1,1,0.11432,0,1,
32,0.58871,2,2,2,1.0113,1,1,0.12473,0,1,
32,0.36217,2,1,1,1.5237,1,1,0.22375,0,1,
32,0.38885,2,2,2,1.6503,1,2,0.35001,0,1,
32,0.39796,2,2,2,1.3851,1,2,0.37478,0,1,
32,0.37956,2,1,1,1.6493,1,1,0.22409,0,1,
32,0.37561,2,1,1,1.7629,1,2,0.65828,0,1,
32,0.85027,2,2,2,1.5757,1,2,0.34202,0,1,
32,0.38164,2,1,1,1.6319,1,1,0.24032,0,1,
32,0.90652,2,1,1,1.2782,1,1,0.23283,0,1,
32,0.56601,2,2,2,1.8398,1,1,0.12548,0,1,
32,0.54662,2,2,2,1.4268,1,2,0.37984,0,1,
32,0.3842,2,2,2,1.6316,1,1,0.1229,0,1,
32,0.3992,2,1,1,1.8335,1,1,0.23927,0,1,
32,0.45447,2,2,2,1.2702,1,2,0.35114,0,1,
32,0.38574,2,1,1,1.4008,1,1,0.2384,0,1,
32,0.48058,2,2,2,1.5543,1,1,0.12634,0,1,
32,0.52706,2,2,2,1.4439,1,1,0.11763,0,1,
32,0.51744,2,2,2,1.0904,1,2,0.34381,0,1,
32,0.84291,2,2,2,1.7444,1,1,0.12414,0,1,
32,0.60456,2,2,2,1.0326,1,2,0.34427,0,1,
32,NaN,2,0,2,1.4297,NaN,2,0.37076,0,1,
32,0.45205,2,1,1,1.0373,1,2,0.68004,0,1,
32,0.61906,2,2,2,1.9758,1,2,0.36746,0,1,
32,0.94473,2,2,2,1.5223,1,1,0.11588,0,1,
32,0.43659,2,1,1,1.9096,1,2,0.68661,0,1,
32,0.56364,2,2,2,1.3832,1,2,0.36673,0,1,
32,1.3411,2,2,2,1.8845,1,1,0.11382,0,1,
32,0.94425,2,2,2,1.255,1,1,0.11996,0,1,
32,0.56864,2,2,2,1.909,1,2,0.37754,0,1,
32,0.88109,2,2,2,1.8946,1,1,0.11514,0,1,
32,0.38909,2,1,1,1.3985,1,1,0.22654,0,1,
32,0.59654,2,1,1,1.625,1,1,0.23227,0,1,
32,0.45273,2,1,1,1.5676,1,1,0.22272,0,1,
32,0.36677,2,1,1,1.8945,1,2,0.72054,0,1,
32,0.80495,2,2,2,1.2142,1,1,0.1231,0,1,
32,0.37085,2,1,1,1.0039,1,2,0.66142,0,1,
32,0.50441,2,1,1,1.8806,1,1,0.22949,0,1,
32,0.48372,2,1,1,1.2351,1,1,0.23822,0,1,
32,NaN,2,0,1,1.2449,NaN,1,0.22957,0,1,
32,0.48083,2,2,2,1.6409,1,2,0.37176,0,1,
32,0.65021,2,2,2,1.3045,1,2,0.37792,0,1,
32,0.34343,2,1,1,1.8256,1,1,0.2372,0,1,
32,0.51172,2,1,1,1.8837,1,2,0.65567,0,1,
32,0.39824,2,1,1,1.9454,1,1,0.22003,0,1,
32,0.47818,2,1,1,1.3908,1,2,0.65739,0,1,
32,0.70124,2,1,1,1.8013,1,1,0.216,0,1,
32,0.67416,2,2,2,1.1571,1,1,0.11376,0,1,
32,0.47892,2,1,1,1.6252,1,2,0.69177,0,1,
32,0.36071,2,2,2,1.699,1,2,0.36568,0,1,
32,0.956,2,2,2,1.0859,1,2,0.37896,0,1,
32,0.42239,2,2,2,1.5312,1,2,0.37096,0,1,
32,0.3592,2,1,1,1.8886,1,2,0.66865,0,1,
32,0.35865,2,1,1,1.2637,1,1,0.22793,0,1,
32,0.35081,2,1,1,1.2348,1,2,0.66535,0,1,
32,0.4211,2,2,2,1.8397,1,2,0.37093,0,1,
32,0.42876,2,1,1,1.4955,1,2,0.6546,0,1,
32,0.53187,2,2,2,1.1524,1,1,0.12383,0,1,
32,0.47599,2,2,2,1.2308,1,2,0.37423,0,1,
32,0.46008,2,1,1,1.658,1,2,0.70372,0,1,
32,0.67989,2,2,2,1.5629,1,1,0.11814,0,1,
32,0.41208,2,1,1,1.2918,1,2,0.69081,0,1,
32,0.39554,2,1,1,1.6223,1,2,0.68169,0,1,
32,0.66031,2,2,2,1.7159,1,1,0.11479,0,1,
32,0.49667,2,2,2,1.2807,1,1,0.12502,0,1,
32,0.60966,2,2,2,1.4123,1,1,0.12298,0,1,
32,0.93954,2,2,2,1.3622,1,1,0.11719,0,1,
32,0.47766,2,1,1,1.7814,1,2,0.72213,0,1,
32,0.62561,2,2,2,1.1355,1,2,0.34821,0,1,
32,0.36769,2,1,1,1.9021,1,1,0.22285,0,1,
32,0.79947,2,1,1,1.2896,1,1,0.22572,0,1,
32,1.0314,2,1,1,1.4996,1,1,0.22123,0,1,
32,0.59226,2,1,1,1.7836,1,2,0.66053,0,1,
32,0.56455,2,2,2,1.6771,1,1,0.12325,0,1,
32,0.46391,2,1,1,1.1498,1,2,0.65943,0,1,
32,0.64405,2,1,1,1.6966,1,2,0.68589,0,1,
32,0.57877,2,1,1,1.129,1,1,0.22275,0,1,
32,0.46571,2,1,1,1.9459,1,2,0.68121,0,1,
32,0.36047,2,1,1,1.8864,1,1,0.23949,0,1,
32,0.58257,2,1,1,1.515,1,1,0.22071,0,1,
32,0.32045,2,1,1,1.6794,1,2,0.64594,0,1,
32,0.61351,2,2,2,1.9768,1,1,0.12614,0,1,
32,0.6194,2,1,1,1.1255,1,1,0.23282,0,1,
32,0.49897,2,2,2,1.7522,1,1,0.12058,0,1,
32,1.09,2,2,2,1.8271,1,2,0.36204,0,1,
32,0.72597,2,2,2,1.7814,1,1,0.11499,0,1,
32,0.47508,2,1,1,1.1909,1,2,0.72441,0,1,
32,0.76032,2,2,2,1.4286,1,1,0.11843,0,1,
32,0.78748,2,2,2,1.0145,1,2,0.36636,0,1,
32,0.83707,2,1,1,1.3253,1,2,0.67578,0,1,
32,0.58625,2,2,2,1.1347,1,2,0.34122,0,1,
32,0.70139,2,2,2,1.4505,1,2,0.36301,0,1,
32,0.54585,2,1,1,1.5723,1,2,0.68485,0,1,
32,0.60866,2,2,2,1.792,1,2,0.35074,0,1,
32,0.69685,2,1,1,1.4197,1,2,0.64925,0,1,
32,0.53661,2,2,2,1.5325,1,1,0.1252,0,1,
32,0.41829,2,2,2,1.9257,1,2,0.34282,0,1,
32,0.65105,1,2,1,1.9151,0,1,0.22813,1,0,
32,0.58728,1,2,1,1.901,0,2,0.70563,1,0,
32,0.54527,1,1,2,1.2142,0,1,0.11883,1,0,
32,0.60108,1,1,2,1.5471,0,1,0.11973,1,0,
32,0.44066,1,2,1,1.7847,0,2,0.65582,1,0,
32,0.39412,1,2,1,1.1944,0,2,0.7048,1,0,
32,0.50182,1,2,1,1.7469,0,2,0.68929,1,0,
32,0.59943,1,1,2,1.4756,0,1,0.12245,1,0,
32,0.37517,1,1,2,1.5833,0,2,0.37373,1,0,
32,0.38358,1,1,2,1.2605,0,1,0.11656,1,0,
32,0.63492,1,2,1,1.0848,0,2,0.71291,1,0,
32,0.52645,1,2,1,1.2981,0,1,0.23892,1,0,
32,0.50196,1,2,1,1.9171,0,2,0.66794,1,0,
32,0.52236,1,1,2,1.4705,0,2,0.37063,1,0,
32,0.77673,1,2,1,1.2695,0,1,0.22387,1,0,
32,0.67947,1,2,1,1.763,0,1,0.22215,1,0,
32,0.55381,1,1,2,1.7722,0,1,0.11589,1,0,
32,0.56054,1,2,1,1.0213,0,2,0.69717,1,0,
32,1.1163,1,1,2,1.88,0,2,0.36261,1,0,
32,0.81925,1,1,2,1.7982,0,1,0.12502,1,0,
32,0.6669,1,2,1,1.3242,0,1,0.22202,1,0,
32,0.71849,1,2,1,1.669,0,2,0.65909,1,0,
32,0.57768,1,1,2,1.2963,0,1,0.11942,1,0,
32,0.51553,1,1,2,1.93,0,1,0.12004,1,0,
32,0.44176,1,1,2,1.282,0,1,0.12439,1,0,
32,0.57116,1,2,1,1.1689,0,2,0.65565,1,0,
32,0.68931,1,1,2,1.7452,0,1,0.11431,1,0,
32,0.85117,1,1,2,1.4771,0,2,0.36646,1,0,
32,0.62642,1,2,1,1.6534,0,2,0.64803,1,0,
32,0.62608,1,2,1,1.9666,0,1,0.21869,1,0,
32,0.54904,1,2,1,1.313,0,2,0.69963,1,0,
32,0.83977,1,1,2,1.0764,0,1,0.12059,1,0,
32,0.54669,1,2,1,1.7914,0,1,0.22916,1,0,
32,0.56616,1,1,2,1.3654,0,2,0.37418,1,0,
32,0.80869,1,2,1,1.5851,0,1,0.23589,1,0,
32,0.46481,1,1,2,1.1833,0,2,0.3612,1,0,
32,0.46629,1,2,1,1.0769,0,2,0.66676,1,0,
32,0.68988,1,1,2,1.1537,0,1,0.11522,1,0,
32,0.99634,1,1,2,1.8269,0,1,0.12585,1,0,
32,0.45248,1,2,1,1.301,0,1,0.24073,1,0,
32,0.63753,1,1,2,1.3839,0,1,0.12666,1,0,
32,0.61592,1,2,1,1.6507,0,2,0.6951,1,0,
32,0.83741,1,2,1,1.8174,0,2,0.65263,1,0,
32,0.71913,1,2,1,1.7663,0,2,0.65144,1,0,
32,0.49863,1,2,1,1.3742,0,2,0.65957,1,0,
32,0.48719,1,2,1,1.1899,0,1,0.21607,1,0,
32,0.75524,1,1,2,1.6465,0,2,0.37059,1,0,
32,0.6246,1,1,2,1.0036,0,1,0.11554,1,0,
32,0.79032,1,2,1,1.2829,0,2,0.69492,1,0,
32,0.5171,1,2,1,1.6386,0,1,0.23578,1,0,
32,0.83839,1,1,2,1.5921,0,2,0.36388,1,0,
32,0.64107,1,1,2,1.3253,0,2,0.35606,1,0,
32,0.40069,1,1,2,1.989,0,1,0.12491,1,0,
32,0.52774,1,1,2,1.1232,0,2,0.3531,1,0,
32,0.52781,1,1,2,1.7359,0,2,0.35369,1,0,
32,0.61605,1,1,2,1.1566,0,2,0.37316,1,0,
32,0.80111,1,2,1,1.4346,0,1,0.22814,1,0,
32,0.65073,1,1,2,1.8322,0,2,0.35132,1,0,
32,0.68181,1,1,2,1.3599,0,2,0.37092,1,0,
32,0.94659,1,1,2,1.0762,0,2,0.34737,1,0,
32,0.97796,1,2,1,1.5569,0,1,0.23937,1,0,
32,0.45235,1,2,1,1.2739,0,1,0.22087,1,0,
32,0.63512,1,1,2,1.1321,0,2,0.34422,1,0,
32,0.75554,1,1,2,1.6997,0,1,0.11461,1,0,
32,0.43314,1,1,2,1.4859,0,2,0.3725,1,0,
32,0.51096,1,2,1,1.1827,0,2,0.70962,1,0,
32,0.45502,1,2,1,1.1012,0,2,0.70333,1,0,
32,0.65877,1,1,2,1.2016,0,2,0.37202,1,0,
32,0.55185,1,1,2,1.1347,0,2,0.38081,1,0,
32,0.48091,1,2,1,1.3238,0,1,0.22716,1,0,
32,0.41835,1,2,1,1.9505,0,2,0.70711,1,0,
32,0.6175,1,1,2,1.5321,0,1,0.1193,1,0,
32,0.59713,1,1,2,1.2477,0,1,0.12668,1,0,
32,1.0512,1,1,2,1.4373,0,2,0.34097,1,0,
32,0.68667,1,2,1,1.6691,0,1,0.24104,1,0,
32,0.43474,1,1,2,1.5477,0,2,0.36405,1,0,
32,0.54976,1,2,1,1.6091,0,2,0.67214,1,0,
32,0.80996,1,1,2,1.8631,0,2,0.36352,1,0,
32,0.73213,1,2,1,1.3807,0,1,0.22285,1,0,
32,0.71286,1,1,2,1.749,0,1,0.11574,1,0,
32,0.5893,1,2,1,1.1567,0,1,0.23242,1,0,
32,0.48231,1,2,1,1.0581,0,1,0.23293,1,0,
32,0.50191,1,2,1,1.3397,0,1,0.23585,1,0,
32,0.48182,1,1,2,1.8172,0,1,0.11829,1,0,
32,0.49326,1,2,1,1.3775,0,1,0.22158,1,0,
32,0.82151,1,2,1,1.9726,0,2,0.67203,1,0,
32,0.43458,1,2,1,1.6053,0,1,0.22359,1,0,
32,0.59244,1,1,2,1.3382,0,1,0.12645,1,0,
32,0.60633,1,1,2,1.928,0,1,0.12397,1,0,
32,0.50028,1,2,1,1.8984,0,2,0.66765,1,0,
32,0.99078,1,2,1,1.8507,0,1,0.23085,1,0,
32,0.59875,1,1,2,1.2568,0,2,0.37235,1,0,
32,1.0426,1,1,2,1.2855,0,2,0.3758,1,0,
32,0.93206,1,2,1,1.7799,0,1,0.23885,1,0,
32,0.48907,1,1,2,1.7014,0,1,0.12171,1,0,
32,0.43248,1,2,1,1.4925,0,1,0.21699,1,0,
32,0.49071,1,1,2,1.9677,0,2,0.34959,1,0,
32,0.73233,1,2,1,1.4762,0,2,0.71385,1,0,
32,0.72444,1,1,2,1.9949,0,1,0.11919,1,0,
32,0.50777,1,2,1,1.4906,0,2,0.69695,1,0,
32,0.4174,1,2,1,1.2406,0,2,0.69475,1,1,
32,0.7502,1,1,1,1.0089,1,1,0.22914,1,1,
32,0.60041,1,2,1,1.6716,0,1,0.22324,1,1,
32,0.56359,1,2,1,1.9048,0,2,0.65782,1,1,
32,NaN,1,0,2,1.5724,NaN,1,0.11565,1,1,
32,1.226,1,2,2,1.1555,1,2,0.34634,1,1,
32,0.59015,1,1,1,1.5024,1,2,0.70086,1,1,
32,0.80705,1,1,1,1.5677,1,1,0.22712,1,1,
32,0.42962,1,1,2,1.1883,0,2,0.34539,1,1,
32,0.69306,1,2,2,1.3242,1,1,0.12319,1,1,
32,0.52008,1,2,2,1.716,1,1,0.11602,1,1,
32,0.46918,1,2,2,1.5529,1,1,0.12466,1,1,
32,0.42129,1,2,2,1.1423,1,2,0.3617,1,1,
32,0.862,1,1,1,1.3804,1,1,0.22932,1,1,
32,0.74875,1,1,1,1.3966,1,1,0.2205,1,1,
32,0.82066,1,2,2,1.5767,1,1,0.12438,1,1,
32,0.62835,1,2,2,1.0194,1,1,0.12074,1,1,
32,0.48817,1,1,1,1.5776,1,1,0.22992,1,1,
32,0.52285,1,2,2,1.9322,1,2,0.35789,1,1,
32,0.57804,1,1,2,1.1069,0,2,0.37043,1,1,
32,0.73731,1,1,1,1.7321,1,1,0.21711,1,1,
32,0.58611,1,2,2,1.9705,1,1,0.12169,1,1,
32,0.58432,1,2,1,1.6089,0,1,0.23775,1,1,
32,0.56155,1,1,1,1.7197,1,2,0.68011,1,1,
32,0.84902,1,2,2,1.3028,1,1,0.12251,1,1,
32,0.61263,1,1,1,1.459,1,1,0.22294,1,1,
32,0.6761,1,2,2,1.048,1,1,0.12187,1,1,
32,0.50915,1,1,1,1.3854,1,1,0.22231,1,1,
32,0.60372,1,2,2,1.3617,1,1,0.1246,1,1,
32,0.56538,1,1,1,1.2876,1,2,0.70786,1,1,
32,0.63037,1,1,1,1.8167,1,2,0.72085,1,1,
32,0.38153,1,1,1,1.4505,1,2,0.67976,1,1,
32,0.3896,1,1,1,1.8066,1,1,0.22691,1,1,
32,0.58993,1,2,2,1.7902,1,2,0.36529,1,1,
32,0.68537,1,1,1,1.283,1,2,0.71166,1,1,
32,0.54365,1,1,1,1.0683,1,2,0.64819,1,1,
32,0.6151,1,2,2,1.0549,1,2,0.34835,1,1,
32,0.64717,1,2,2,1.6375,1,1,0.12668,1,1,
32,0.59506,1,1,1,1.4243,1,2,0.72034,1,1,
32,0.65607,1,2,2,1.9055,1,2,0.35917,1,1,
32,0.49105,1,2,2,1.4173,1,2,0.37428,1,1,
32,0.5908,1,2,2,1.1541,1,1,0.12647,1,1,
32,0.66861,1,1,1,1.54,1,2,0.69787,1,1,
32,1.1568,1,1,1,1.9371,1,1,0.22472,1,1,
32,0.74513,1,2,2,1.661,1,2,0.35722,1,1,
32,1.4298,1,2,1,1.3947,0,2,0.67933,1,1,
32,0.81727,1,1,1,1.259,1,1,0.23278,1,1,
32,0.76353,1,2,2,1.8479,1,2,0.35967,1,1,
32,0.57135,1,1,1,1.9451,1,2,0.72078,1,1,
32,0.65733,1,1,1,1.377,1,2,0.67278,1,1,
32,0.63302,1,1,1,1.0673,1,1,0.22386,1,1,
32,0.44975,1,1,1,1.1816,1,1,0.23868,1,1,
32,0.53664,1,1,1,1.5757,1,1,0.22924,1,1,
32,0.3968,1,1,1,1.1859,1,2,0.70405,1,1,
32,0.72133,1,2,2,1.2914,1,2,0.34586,1,1,
32,0.57115,1,1,1,1.4617,1,2,0.68046,1,1,
32,0.64666,1,2,2,1.347,1,1,0.11462,1,1,
32,NaN,1,0,2,1.3182,NaN,2,0.36797,1,1,
32,0.90638,1,2,2,1.4599,1,2,0.36969,1,1,
32,0.52697,1,2,2,1.2359,1,1,0.12632,1,1,
32,0.41565,1,2,2,1.0278,1,2,0.36784,1,1,
32,0.42679,1,2,2,1.6585,1,1,0.12304,1,1,
32,0.52172,1,1,1,1.1588,1,2,0.71257,1,1,
32,0.70907,1,2,2,1.8027,1,2,0.35979,1,1,
32,1.0644,1,1,1,1.4086,1,1,0.22696,1,1,
32,0.62623,1,1,1,1.3274,1,1,0.23622,1,1,
32,0.79935,1,1,1,1.746,1,2,0.7102,1,1,
32,0.59584,1,2,2,1.7464,1,1,0.11616,1,1,
32,0.69719,1,2,2,1.174,1,1,0.11398,1,1,
32,0.70257,1,1,1,1.1175,1,1,0.2167,1,1,
32,0.66337,1,1,1,1.174,1,2,0.65658,1,1,
32,1.1549,1,2,2,1.6274,1,2,0.34771,1,1,
32,0.56907,1,2,2,1.8419,1,1,0.12213,1,1,
32,0.52943,1,1,1,1.5101,1,2,0.64806,1,1,
32,0.88419,1,2,2,1.1658,1,1,0.11999,1,1,
32,0.61717,1,2,2,1.7143,1,1,0.12287,1,1,
32,0.47295,1,2,2,1.907,1,2,0.34545,1,1,
32,0.69125,1,1,1,1.2185,1,1,0.22122,1,1,
32,1.5301,1,2,2,1.871,1,2,0.35246,1,1,
32,0.69917,1,2,2,1.2118,1,1,0.11592,1,1,
32,0.59256,1,2,2,1.8367,1,2,0.35386,1,1,
32,0.57472,1,1,1,1.8593,1,1,0.23609,1,1,
32,0.53989,1,1,1,1.5234,1,2,0.66853,1,1,
32,0.62848,1,2,2,1.4774,1,1,0.12425,1,1,
32,0.48177,1,2,2,1.8899,1,1,0.12111,1,1,
32,0.82591,1,2,2,1.0651,1,2,0.3634,1,1,
32,0.60309,1,1,1,1.5095,1,2,0.70254,1,1,
32,0.60771,1,2,2,1.6208,1,1,0.12423,1,1,
32,0.75277,1,2,2,1.7336,1,2,0.37818,1,1,
32,0.59041,1,1,1,1.23,1,2,0.65622,1,1,
32,0.64477,1,2,2,1.0219,1,2,0.37356,1,1,
32,0.69808,1,1,1,1.139,1,2,0.6601,1,1,
32,0.57303,1,2,2,1.7695,1,2,0.34206,1,1,
32,0.53709,1,1,1,1.9698,1,2,0.6554,1,1,
32,0.63081,1,2,2,1.3868,1,1,0.1154,1,1,
32,0.73631,1,2,2,1.9934,1,2,0.34599,1,1,
32,0.48018,1,1,1,1.3264,1,1,0.23976,1,1,
32,1.5732,1,1,1,1.1372,1,1,0.22217,1,1,
32,0.6038,1,1,1,1.3848,1,1,0.23997,1,1,
32,0.44723,1,1,1,1.5626,1,1,0.2317,1,1,
32,0.89597,1,1,2,1.8798,1,2,0.35684,0,0,
32,0.47703,1,2,1,1.3736,1,2,0.70747,0,0,
32,0.60294,1,2,1,1.7667,1,1,0.23053,0,0,
32,0.54552,1,1,2,1.1681,1,2,0.35329,0,0,
32,0.57732,1,1,2,1.5197,1,2,0.37822,0,0,
32,0.43337,1,1,2,1.6275,1,1,0.11486,0,0,
32,0.56592,1,2,1,1.7139,1,2,0.67002,0,0,
32,0.70899,1,1,2,1.3064,1,1,0.12586,0,0,
32,0.51626,1,2,1,1.2637,1,1,0.23221,0,0,
32,1.0966,1,2,1,1.916,1,1,0.23294,0,0,
32,0.55595,1,2,1,1.615,1,1,0.22736,0,0,
32,0.72267,1,2,1,1.0932,1,1,0.21882,0,0,
32,0.95567,1,2,1,1.6277,1,1,0.2402,0,0,
32,0.61101,1,1,2,1.192,1,2,0.37738,0,0,
32,0.59224,1,2,1,1.777,1,2,0.67922,0,0,
32,0.43385,1,2,1,1.8645,1,2,0.71103,0,0,
32,0.57617,1,1,2,1.3336,1,1,0.11797,0,0,
32,0.54795,1,1,2,1.1354,1,2,0.35566,0,0,
32,0.6908,1,2,1,1.7655,1,1,0.23592,0,0,
32,0.96947,1,1,2,1.3186,1,2,0.34484,0,0,
32,0.67691,1,1,2,1.2524,1,2,0.3804,0,0,
32,0.5926,1,1,2,1.2001,1,1,0.11366,0,0,
32,0.61062,1,2,1,1.069,1,2,0.6682,0,0,
32,0.56057,1,1,2,1.5519,1,2,0.34283,0,0,
32,0.40879,1,2,1,1.4038,1,2,0.67964,0,0,
32,0.55327,1,2,1,1.7501,1,2,0.70735,0,0,
32,0.83473,1,1,2,1.4872,1,1,0.12624,0,0,
32,0.62959,1,2,1,1.3848,1,2,0.68676,0,0,
32,0.57119,1,2,1,1.0614,1,1,0.23617,0,0,
32,0.447,1,2,1,1.2137,1,2,0.68908,0,0,
32,0.65041,1,2,1,1.5439,1,2,0.70418,0,0,
32,0.60008,1,1,2,1.4106,1,2,0.34128,0,0,
32,0.39988,1,2,1,1.901,1,2,0.68231,0,0,
32,0.52603,1,2,1,1.0563,1,1,0.22158,0,0,
32,0.57217,1,1,2,1.4435,1,2,0.35322,0,0,
32,0.52729,1,1,2,1.5378,1,1,0.12702,0,0,
32,0.58219,1,2,1,1.1341,1,2,0.66158,0,0,
32,0.37478,1,1,2,1.5409,1,1,0.12066,0,0,
32,0.52104,1,1,2,1.8574,1,2,0.34989,0,0,
32,0.42215,1,1,2,1.198,1,1,0.12131,0,0,
32,0.54092,1,1,2,1.1556,1,1,0.12748,0,0,
32,0.38963,1,1,2,1.0614,1,1,0.11538,0,0,
32,0.63804,1,2,1,1.6611,1,2,0.7209,0,0,
32,0.50888,1,1,2,1.0186,1,2,0.34582,0,0,
32,0.39349,1,2,1,1.2911,1,2,0.65986,0,0,
32,0.56554,1,1,2,1.9738,1,2,0.36726,0,0,
32,0.6225,1,1,2,1.7646,1,1,0.11533,0,0,
32,0.52667,1,2,1,1.2437,1,1,0.21731,0,0,
32,0.52577,1,2,1,1.6821,1,1,0.23226,0,0,
32,0.69923,1,1,2,1.1379,1,1,0.114,0,0,
32,0.57448,1,2,1,1.6298,1,2,0.72343,0,0,
32,0.45872,1,2,1,1.857,1,1,0.22908,0,0,
32,0.56512,1,2,1,1.8998,1,1,0.22476,0,0,
32,0.41373,1,2,1,1.3484,1,2,0.70061,0,0,
32,0.3252,1,2,1,1.4863,1,1,0.2401,0,0,
32,0.64444,1,1,2,1.6795,1,1,0.11875,0,0,
32,0.53243,1,2,1,1.7041,1,1,0.23317,0,0,
32,0.84548,1,1,2,1.4609,1,1,0.1218,0,0,
32,0.77735,1,1,2,1.3643,1,2,0.37275,0,0,
32,0.56892,1,2,1,1.2803,1,1,0.23047,0,0,
32,0.52819,1,2,1,1.0762,1,2,0.67445,0,0,
32,0.53856,1,2,1,1.4446,1,1,0.23744,0,0,
32,0.52433,1,2,1,1.1657,1,1,0.22096,0,0,
32,0.61323,1,1,2,1.3987,1,2,0.37368,0,0,
32,0.67481,1,1,2,1.9206,1,1,0.12746,0,0,
32,0.61092,1,1,2,1.5113,1,2,0.35214,0,0,
32,0.50339,1,2,1,1.9141,1,1,0.23363,0,0,
32,0.64664,1,1,2,1.0919,1,2,0.36803,0,0,
32,0.46272,1,1,2,1.993,1,2,0.3576,0,0,
32,0.47144,1,1,2,1.0964,1,1,0.12035,0,0,
32,0.57543,1,2,1,1.3131,1,1,0.24015,0,0,
32,0.48279,1,1,2,1.7854,1,2,0.38046,0,0,
32,0.60868,1,1,2,1.6024,1,1,0.12364,0,0,
32,0.51438,1,2,1,1.4659,1,2,0.67511,0,0,
32,1.0336,1,1,2,1.2981,1,1,0.11417,0,0,
32,1.2278,1,1,2,1.1332,1,1,0.12153,0,0,
32,0.51636,1,1,2,1.295,1,1,0.12127,0,0,
32,0.67015,1,1,2,1.1666,1,1,0.11838,0,0,
32,0.66162,1,2,1,1.3171,1,2,0.71474,0,0,
32,0.7049,1,1,2,1.1098,1,2,0.36633,0,0,
32,0.62066,1,2,1,1.8321,1,1,0.23132,0,0,
32,0.44942,1,2,1,1.9716,1,1,0.22274,0,0,
32,0.56363,1,2,1,1.2183,1,2,0.65144,0,0,
32,0.64616,1,1,2,1.7061,1,2,0.35264,0,0,
32,0.444,1,2,1,1.039,1,2,0.66355,0,0,
32,0.59884,1,1,2,1.6163,1,2,0.35477,0,0,
32,0.76326,1,1,2,1.6694,1,1,0.1253,0,0,
32,0.5643,1,2,1,1.0372,1,2,0.6579,0,0,
32,0.67541,1,2,1,1.0033,1,1,0.21924,0,0,
32,0.5476,1,1,2,1.1425,1,2,0.36148,0,0,
32,0.3755,1,2,1,1.8624,1,2,0.69232,0,0,
32,0.6482,1,2,1,1.276,1,1,0.21932,0,0,
32,0.78198,1,1,2,1.5317,1,2,0.3668,0,0,
32,0.57589,1,1,2,1.5222,1,1,0.12524,0,0,
32,0.50961,1,2,1,1.5676,1,2,0.70673,0,0,
32,0.72799,1,2,1,1.333,1,1,0.22195,0,0,
32,0.68591,1,2,1,1.4134,1,2,0.66969,0,0,
32,0.69549,1,1,2,1.4143,1,2,0.34819,0,0,
32,0.9587,1,1,2,1.9839,1,1,0.11965,0,0,
32,1.1708,1,1,2,1.0577,1,1,0.11799,0,0,
32,0.78864,1,1,1,1.2821,0,2,0.66641,0,1,
32,0.78677,1,2,2,1.2449,0,1,0.11671,0,1,
32,0.46163,1,2,2,1.2863,0,1,0.12604,0,1,
32,0.47551,1,2,2,1.9631,0,1,0.12617,0,1,
32,0.41717,1,2,2,1.2307,0,1,0.12182,0,1,
32,0.41026,1,2,2,1.5373,0,2,0.35556,0,1,
32,0.34139,1,2,2,1.205,0,1,0.12175,0,1,
32,0.5282,1,2,2,1.434,0,2,0.36819,0,1,
32,0.43981,1,1,1,1.1422,0,2,0.71593,0,1,
32,0.40674,1,1,1,1.3756,0,2,0.65239,0,1,
32,0.45195,1,2,2,1.7936,0,1,0.12091,0,1,
32,0.33628,1,1,1,1.8128,0,2,0.67852,0,1,
32,0.32571,1,2,2,1.9038,0,1,0.12201,0,1,
32,0.42297,1,2,2,1.5404,0,2,0.36358,0,1,
32,0.40067,1,1,1,1.8179,0,1,0.22096,0,1,
32,0.33688,1,1,1,1.7084,0,2,0.65368,0,1,
32,0.48941,1,2,2,1.0432,0,1,0.11377,0,1,
32,0.3994,1,2,2,1.1459,0,1,0.11442,0,1,
32,0.35733,1,2,2,1.2333,0,2,0.35382,0,1,
32,0.3991,1,1,1,1.2467,0,2,0.7065,0,1,
32,0.33926,1,1,1,1.1703,0,2,0.67129,0,1,
32,0.41068,1,2,2,1.2351,0,2,0.36612,0,1,
32,0.38601,1,1,1,1.2755,0,1,0.24136,0,1,
32,0.39114,1,1,1,1.9516,0,2,0.69589,0,1,
32,0.46874,1,2,2,1.3467,0,2,0.36278,0,1,
32,0.32759,1,1,1,1.2973,0,2,0.66336,0,1,
32,0.38495,1,1,1,1.4044,0,1,0.23443,0,1,
32,0.44607,1,2,2,1.3022,0,2,0.37766,0,1,
32,0.5554,1,2,2,1.7573,0,1,0.12546,0,1,
32,0.36045,1,2,2,1.3597,0,1,0.12173,0,1,
32,0.55512,1,2,2,1.1249,0,1,0.12254,0,1,
32,0.40966,1,2,2,1.6172,0,2,0.37879,0,1,
32,0.53924,1,1,1,1.3555,0,1,0.2263,0,1,
32,0.3823,1,2,2,1.3629,0,2,0.35248,0,1,
32,0.45793,1,1,1,1.0685,0,1,0.23153,0,1,
32,0.44371,1,1,1,1.8672,0,2,0.66821,0,1,
32,0.50325,1,2,2,1.4579,0,2,0.36623,0,1,
32,1.0514,1,1,1,1.0776,0,1,0.21647,0,1,
32,0.59208,1,2,2,1.9049,0,1,0.12743,0,1,
32,0.52311,1,1,1,1.2817,0,1,0.22047,0,1,
32,0.41638,1,1,1,1.6139,0,2,0.69264,0,1,
32,0.3719,1,1,1,1.6619,0,2,0.67223,0,1,
32,0.47405,1,2,2,1.2,0,2,0.37029,0,1,
32,0.44902,1,1,1,1.96,0,1,0.21598,0,1,
32,0.39684,1,2,2,1.6651,0,1,0.11452,0,1,
32,0.72278,1,2,2,1.5413,0,1,0.12644,0,1,
32,0.46516,1,1,1,1.869,0,2,0.65242,0,1,
32,0.54881,1,1,1,1.557,0,1,0.22369,0,1,
32,0.40034,1,1,1,1.0214,0,1,0.22873,0,1,
32,0.33183,1,1,1,1.4827,0,2,0.66446,0,1,
32,0.51452,1,2,2,1.808,0,2,0.36291,0,1,
32,0.57887,1,2,2,1.736,0,1,0.12433,0,1,
32,0.48668,1,2,2,1.5723,0,2,0.36203,0,1,
32,0.43832,1,1,1,1.009,0,1,0.23967,0,1,
32,0.41777,1,1,1,1.7183,0,1,0.21896,0,1,
32,0.52958,1,1,1,1.4494,0,1,0.22587,0,1,
32,0.52218,1,1,1,1.6596,0,1,0.22235,0,1,
32,0.47216,1,2,2,1.7532,0,2,0.36522,0,1,
32,0.39133,1,1,1,1.8047,0,1,0.21619,0,1,
32,0.48714,1,2,2,1.0292,0,1,0.11448,0,1,
32,0.35604,1,1,1,1.7798,0,2,0.67032,0,1,
32,0.47926,1,1,1,1.5674,0,1,0.21774,0,1,
32,0.39204,1,1,1,1.0761,0,1,0.21954,0,1,
32,0.45577,1,2,2,1.2516,0,1,0.1186,0,1,
32,0.44185,1,2,2,1.1335,0,2,0.34248,0,1,
32,0.55831,1,2,2,1.5645,0,1,0.12331,0,1,
32,0.45526,1,2,2,1.541,0,2,0.36704,0,1,
32,0.4537,1,2,2,1.0689,0,2,0.34782,0,1,
32,0.66707,1,1,1,1.9884,0,1,0.21683,0,1,
32,0.46119,1,1,1,1.2511,0,1,0.22561,0,1,
32,0.44414,1,2,2,1.3155,0,2,0.35959,0,1,
32,0.36281,1,1,1,1.3007,0,1,0.22037,0,1,
32,0.64131,1,2,2,1.042,0,1,0.12561,0,1,
32,0.42427,1,2,2,1.5279,0,2,0.36521,0,1,
32,0.47398,1,1,1,1.256,0,2,0.64757,0,1,
32,0.43351,1,1,1,1.4087,0,2,0.71633,0,1,
32,0.70415,1,2,2,1.9475,0,2,0.35917,0,1,
32,0.55999,1,1,1,1.9193,0,2,0.65019,0,1,
32,0.58505,1,2,2,1.1212,0,1,0.11504,0,1,
32,0.45028,1,1,1,1.5919,0,2,0.72454,0,1,
32,0.58127,1,1,1,1.3597,0,2,0.7136,0,1,
32,0.44345,1,1,1,1.7193,0,2,0.69327,0,1,
32,0.42946,1,1,1,1.5236,0,1,0.21596,0,1,
32,0.4204,1,2,2,1.2608,0,1,0.11794,0,1,
32,0.40427,1,2,2,1.4931,0,2,0.35962,0,1,
32,0.5914,1,1,1,1.8558,0,2,0.65327,0,1,
32,0.40192,1,1,1,1.7244,0,1,0.22992,0,1,
32,0.6482,1,1,1,1.1991,0,1,0.22352,0,1,
32,0.6961,1,2,2,1.1573,0,2,0.35907,0,1,
32,0.43695,1,2,2,1.3705,0,2,0.36437,0,1,
32,0.41397,1,1,1,1.8623,0,2,0.65145,0,1,
32,0.40553,1,2,2,1.6848,0,2,0.34318,0,1,
32,0.67068,1,2,2,1.6342,0,1,0.11765,0,1,
32,0.39729,1,1,1,1.1413,0,2,0.68584,0,1,
32,0.48533,1,2,2,1.0793,0,1,0.12123,0,1,
32,0.4224,1,2,2,1.8761,0,1,0.11684,0,1,
32,0.48591,1,2,2,1.4204,0,2,0.37869,0,1,
32,0.52659,1,1,1,1.4877,0,1,0.23676,0,1,
32,0.4146,1,1,1,1.4603,0,1,0.22659,0,1,
32,0.30294,1,1,1,1.5157,0,2,0.72317,0,1,
32,0.7593,1,1,2,1.61,0,2,0.35497,1,0,
32,0.42952,1,1,2,1.3837,0,2,0.37968,1,0,
32,1.333,1,2,1,1.0306,0,2,0.71866,1,0,
32,0.77217,1,2,1,1.8576,0,1,0.23036,1,0,
32,1.2941,1,1,2,1.6035,0,1,0.11498,1,0,
32,NaN,1,0,1,1.8478,NaN,2,0.67373,1,0,
32,NaN,1,0,1,1.5046,NaN,2,0.6667,1,0,
32,NaN,1,0,2,1.0079,NaN,1,0.11717,1,0,
32,0.71386,1,1,1,1.9191,1,2,0.66293,1,0,
32,0.83802,1,2,2,1.4107,1,1,0.11366,1,0,
32,0.56255,1,1,1,1.7324,1,2,0.7158,1,0,
32,0.52386,1,1,1,1.1511,1,1,0.22683,1,0,
32,0.7515,1,1,1,1.8152,1,2,0.69034,1,0,
32,0.65688,1,1,1,1.9096,1,1,0.22325,1,0,
32,0.75174,1,2,2,1.7779,1,2,0.38225,1,0,
32,0.71313,1,1,1,1.7571,1,1,0.24111,1,0,
32,0.40162,1,2,2,1.4052,1,1,0.12699,1,0,
32,0.41453,1,2,2,1.7019,1,2,0.3681,1,0,
32,0.54911,1,2,2,1.5655,1,2,0.37065,1,0,
32,0.80513,1,1,1,1.5847,1,1,0.22373,1,0,
32,0.53902,1,2,2,1.3449,1,1,0.12069,1,0,
32,0.49873,1,1,1,1.7042,1,2,0.66651,1,0,
32,0.67305,1,2,2,1.1609,1,1,0.12344,1,0,
32,0.88547,1,1,1,1.0015,1,1,0.23546,1,0,
32,0.98653,1,1,1,1.562,1,2,0.65192,1,0,
32,0.75243,1,2,2,1.5465,1,2,0.34973,1,0,
32,0.875,1,2,2,1.5508,1,1,0.11634,1,0,
32,1.0985,1,2,2,1.6945,1,2,0.36632,1,0,
32,0.5817,1,1,1,1.9275,1,2,0.7021,1,0,
32,0.41138,1,2,2,1.9442,1,2,0.37529,1,0,
32,0.49982,1,1,1,1.9033,1,1,0.21576,1,0,
32,0.57705,1,1,1,1.6041,1,1,0.22036,1,0,
32,0.37024,1,2,2,1.9262,1,1,0.11995,1,0,
32,0.43263,1,1,1,1.1169,1,1,0.22487,1,0,
32,0.79637,1,1,1,1.3408,1,1,0.22389,1,0,
32,0.40228,1,2,2,1.0367,1,2,0.34343,1,0,
32,0.78033,1,2,2,1.5384,1,1,0.12405,1,0,
32,0.5185,1,1,1,1.7372,1,2,0.67651,1,0,
32,0.36867,1,1,1,1.1812,1,2,0.698,1,0,
32,0.51879,1,2,2,1.4262,1,1,0.12108,1,0,
32,0.6538,1,2,2,1.0982,1,1,0.11431,1,0,
32,0.67083,1,1,1,1.3032,1,1,0.22305,1,0,
32,0.46895,1,1,1,1.7801,1,1,0.2406,1,0,
32,0.3699,1,1,1,1.537,1,1,0.23966,1,0,
32,0.49694,1,1,1,1.7691,1,1,0.22486,1,0,
32,0.34231,1,1,1,1.6389,1,2,0.69346,1,0,
32,0.28418,1,1,1,1.8931,1,2,0.68907,1,0,
32,0.89446,1,2,2,1.0607,1,2,0.37513,1,0,
32,0.43806,1,1,1,1.1758,1,1,0.24038,1,0,
32,0.55172,1,2,2,1.4163,1,2,0.3439,1,0,
32,0.41755,1,2,2,1.7398,1,2,0.37762,1,0,
32,0.45813,1,2,2,1.893,1,2,0.36372,1,0,
32,0.81567,1,2,2,1.0259,1,1,0.11621,1,0,
32,0.72828,1,2,1,1.1376,0,1,0.22085,1,0,
32,0.42737,1,2,2,1.4241,1,2,0.36978,1,0,
32,1.0669,1,2,2,1.7646,1,1,0.12172,1,0,
32,0.41031,1,1,1,1.5244,1,2,0.69096,1,0,
32,0.4505,1,1,1,1.7545,1,1,0.24068,1,0,
32,0.60902,1,1,1,1.1698,1,2,0.6906,1,0,
32,0.52385,1,2,2,1.6727,1,1,0.11495,1,0,
32,0.63987,1,1,1,1.6187,1,1,0.21946,1,0,
32,0.61145,1,2,1,1.0068,0,1,0.21783,1,0,
32,0.60496,1,1,1,1.7402,1,1,0.21894,1,0,
32,0.41139,1,1,1,1.9917,1,1,0.23259,1,0,
32,1.0321,1,2,2,1.1282,1,1,0.12233,1,0,
32,0.57506,1,1,1,1.3606,1,2,0.67416,1,0,
32,0.7683,1,2,2,1.1911,1,1,0.11579,1,0,
32,0.51923,1,2,2,1.7144,1,2,0.35656,1,0,
32,0.49332,1,2,2,1.1779,1,1,0.1246,1,0,
32,0.47796,1,2,2,1.9868,1,1,0.11899,1,0,
32,0.72484,1,2,2,1.017,1,2,0.37188,1,0,
32,0.5657,1,2,2,1.0398,1,2,0.3527,1,0,
32,0.42422,1,1,1,1.8043,1,1,0.23175,1,0,
32,0.56572,1,2,2,1.8598,1,1,0.12583,1,0,
32,0.40624,1,2,2,1.5663,1,2,0.34925,1,0,
32,0.67716,1,2,2,1.7541,1,1,0.1201,1,0,
32,0.54949,1,1,1,1.5195,1,2,0.65432,1,0,
32,1.0179,1,1,1,1.5859,1,2,0.65578,1,0,
32,0.57959,1,1,1,1.1907,1,2,0.65064,1,0,
32,0.77215,1,2,2,1.5034,1,2,0.34405,1,0,
32,0.55515,1,2,2,1.0509,1,2,0.36644,1,0,
32,0.85854,1,1,1,1.0561,1,1,0.22573,1,0,
32,1.0846,1,1,1,1.3352,1,2,0.69513,1,0,
32,0.55637,1,1,1,1.6309,1,2,0.7128,1,0,
32,1.3831,1,2,2,1.892,1,2,0.37225,1,0,
32,0.60473,1,2,2,1.6734,1,1,0.12716,1,0,
32,0.68732,1,2,2,1.6853,1,1,0.12434,1,0,
32,0.4357,1,1,1,1.6957,1,2,0.71931,1,0,
32,0.47299,1,1,1,1.7998,1,2,0.70323,1,0,
32,0.61887,1,2,2,1.6606,1,2,0.35102,1,0,
32,0.62586,1,1,1,1.5199,1,1,0.23387,1,0,
32,0.72897,1,2,2,1.3317,1,1,0.12309,1,0,
32,0.43873,1,2,2,1.9342,1,1,0.12422,1,0,
32,0.42253,1,2,2,1.2465,1,1,0.12385,1,0,
32,0.47959,1,2,2,1.5112,1,2,0.35365,1,0,
32,1.4801,1,2,2,1.7403,1,2,0.36155,1,0,
32,0.6687,1,2,2,1.2542,1,2,0.37265,1,0,
32,0.62465,1,1,1,1.8456,1,1,0.22996,1,0,
32,0.39479,1,1,1,1.5382,1,2,0.72083,1,0,
32,0.56286,1,1,1,1.9101,1,2,0.65875,1,0,
32,1.4508,1,1,2,1.4547,0,2,0.36722,1,1,
32,1.1128,1,2,2,1.029,1,1,0.11951,1,1,
32,0.41944,1,2,2,1.6371,1,1,0.12194,1,1,
32,0.38622,1,2,2,1.0595,1,1,0.12371,1,1,
32,0.38706,1,2,2,1.1692,1,1,0.11768,1,1,
32,0.44142,1,2,2,1.6847,1,1,0.1142,1,1,
32,0.43962,1,2,2,1.5546,1,1,0.12511,1,1,
32,0.57716,1,1,1,1.006,1,2,0.67391,1,1,
32,0.32223,1,1,1,1.2881,1,2,0.69696,1,1,
32,0.28723,1,1,1,1.3766,1,2,0.71602,1,1,
32,0.35723,1,1,1,1.1465,1,1,0.22219,1,1,
32,0.45569,1,1,1,1.0745,1,2,0.72449,1,1,
32,0.52402,1,2,2,1.4607,1,1,0.1251,1,1,
32,0.69314,1,2,2,1.3704,1,1,0.12448,1,1,
32,0.71231,1,2,2,1.8246,1,1,0.12256,1,1,
32,1.2825,1,2,1,1.5375,0,1,0.22919,1,1,
32,0.61854,1,2,1,1.8175,0,2,0.67526,1,1,
32,0.47987,1,1,1,1.4604,1,1,0.23666,1,1,
32,0.5611,1,2,2,1.014,1,1,0.1217,1,1,
32,0.58896,1,2,2,1.005,1,2,0.37302,1,1,
32,0.44667,1,2,2,1.1662,1,2,0.38197,1,1,
32,0.78903,1,2,2,1.3659,1,1,0.12443,1,1,
32,0.32649,1,2,2,1.7182,1,2,0.37609,1,1,
32,0.37297,1,2,2,1.1594,1,1,0.12017,1,1,
32,1.1546,1,1,1,1.2788,1,1,0.23807,1,1,
32,0.34165,1,1,1,1.6449,1,2,0.67117,1,1,
32,0.58011,1,2,2,1.2872,1,1,0.11636,1,1,
32,0.94734,1,1,1,1.3219,1,1,0.2279,1,1,
32,0.52982,1,1,1,1.1554,1,2,0.64819,1,1,
32,0.76367,1,2,2,1.3877,1,1,0.125,1,1,
32,0.67975,1,1,1,1.8957,1,1,0.22194,1,1,
32,0.81338,1,2,2,1.8878,1,1,0.12286,1,1,
32,0.53233,1,1,1,1.3936,1,2,0.70767,1,1,
32,0.59733,1,2,2,1.6755,1,2,0.36876,1,1,
32,0.62296,1,2,2,1.2522,1,2,0.36744,1,1,
32,1.0097,1,1,1,1.95,1,2,0.66375,1,1,
32,0.84264,1,2,2,1.6247,1,1,0.12006,1,1,
32,1.0377,1,1,1,1.2069,1,2,0.71938,1,1,
32,1.3029,1,1,1,1.1097,1,2,0.66404,1,1,
32,0.6436,1,1,1,1.5658,1,1,0.22053,1,1,
32,0.46363,1,1,1,1.2743,1,2,0.66644,1,1,
32,0.78713,1,2,2,1.0712,1,2,0.37277,1,1,
32,0.92594,1,1,1,1.1584,1,2,0.67098,1,1,
32,1.3103,1,2,2,1.0495,1,2,0.36543,1,1,
32,0.64159,1,2,2,1.6809,1,1,0.11607,1,1,
32,1.7945,1,1,1,1.7818,1,1,0.21747,1,1,
32,0.70769,1,2,2,1.8074,1,2,0.35326,1,1,
32,1.0581,1,2,2,1.2651,1,2,0.3501,1,1,
32,0.60168,1,1,1,1.8959,1,1,0.23904,1,1,
32,0.77835,1,2,2,1.608,1,2,0.37975,1,1,
32,0.53136,1,2,2,1.0144,1,2,0.34217,1,1,
32,0.39615,1,2,2,1.344,1,2,0.36503,1,1,
32,0.27167,1,2,2,1.5337,1,2,0.34264,1,1,
32,0.75051,1,1,1,1.6278,1,1,0.22608,1,1,
32,0.89038,1,2,2,1.4467,1,1,0.12067,1,1,
32,1.0335,1,2,2,1.8111,1,2,0.37555,1,1,
32,0.64053,1,2,2,1.1448,1,2,0.36636,1,1,
32,0.36253,1,2,2,1.9748,1,2,0.35108,1,1,
32,0.6528,1,1,1,1.8338,1,2,0.71676,1,1,
32,0.53963,1,2,2,1.3401,1,2,0.37241,1,1,
32,0.38423,1,1,1,1.6162,1,1,0.22969,1,1,
32,0.53336,1,2,2,1.3038,1,1,0.126,1,1,
32,0.55572,1,2,2,1.0892,1,2,0.35568,1,1,
32,0.35968,1,1,1,1.5215,1,2,0.67147,1,1,
32,0.67129,1,1,1,1.8253,1,2,0.69356,1,1,
32,0.61039,1,2,2,1.7639,1,2,0.34435,1,1,
32,1.1853,1,2,2,1.9476,1,2,0.35598,1,1,
32,0.60037,1,1,1,1.3335,1,1,0.21998,1,1,
32,0.65205,1,1,1,1.3897,1,2,0.70903,1,1,
32,0.78333,1,1,1,1.1504,1,2,0.70194,1,1,
32,0.37866,1,1,1,1.3337,1,2,0.69803,1,1,
32,0.55169,1,2,2,1.5537,1,1,0.12625,1,1,
32,0.67502,1,1,1,1.5503,1,2,0.70988,1,1,
32,0.46367,1,1,1,1.1604,1,2,0.68798,1,1,
32,0.70758,1,2,2,1.1171,1,1,0.11384,1,1,
32,0.63437,1,1,1,1.3986,1,1,0.21765,1,1,
32,0.78688,1,1,1,1.8314,1,1,0.22843,1,1,
32,0.83696,1,2,2,1.185,1,1,0.12681,1,1,
32,0.60966,1,1,1,1.5008,1,2,0.71169,1,1,
32,0.54435,1,2,2,1.1263,1,2,0.37967,1,1,
32,0.88906,1,1,1,1.8646,1,1,0.24082,1,1,
32,0.67289,1,1,1,1.7666,1,1,0.22472,1,1,
32,0.51182,1,1,1,1.5644,1,1,0.22339,1,1,
32,0.50799,1,1,1,1.3896,1,1,0.2356,1,1,
32,0.62636,1,2,2,1.4901,1,1,0.11645,1,1,
32,1.2995,1,1,1,1.8869,1,1,0.24042,1,1,
32,0.63982,1,2,2,1.905,1,2,0.37946,1,1,
32,0.68726,1,1,1,1.4984,1,1,0.22455,1,1,
32,1.6686,1,2,1,1.5292,0,1,0.22401,1,1,
32,0.69483,1,2,2,1.9097,1,2,0.36922,1,1,
32,0.51133,1,1,1,1.5786,1,1,0.2338,1,1,
32,0.74931,1,1,1,1.7758,1,1,0.23607,1,1,
32,0.56479,1,1,1,1.6614,1,1,0.23052,1,1,
32,0.49703,1,1,1,1.4697,1,2,0.65313,1,1,
32,0.48935,1,1,1,1.2198,1,2,0.68883,1,1,
32,0.88016,1,2,2,1.6026,1,1,0.1142,1,1,
32,0.97834,1,1,2,1.1843,0,2,0.37199,1,1,
32,0.59736,1,2,2,1.1975,1,1,0.12261,1,1,
32,0.62915,1,1,1,1.862,1,1,0.23067,1,1,
32,0.73739,1,1,1,1.1256,1,2,0.66296,1,1,
32,0.73488,1,1,1,1.8531,0,2,0.68946,0,0,
32,0.38224,1,1,1,1.4291,0,1,0.22044,0,0,
32,0.48321,1,2,2,1.9257,0,2,0.38004,0,0,
32,1.2152,1,2,2,1.3731,0,2,0.36165,0,0,
32,0.53161,1,1,1,1.6982,0,1,0.22224,0,0,
32,0.55853,1,1,1,1.5886,0,2,0.66313,0,0,
32,0.53817,1,1,1,1.1009,0,1,0.24025,0,0,
32,0.54887,1,2,2,1.4124,0,2,0.36908,0,0,
32,0.86415,1,2,2,1.9247,0,1,0.12329,0,0,
32,0.56474,1,1,1,1.0556,0,1,0.2322,0,0,
32,0.39508,1,1,1,1.384,0,2,0.70646,0,0,
32,0.83074,1,1,1,1.2406,0,2,0.6905,0,0,
32,0.61448,1,2,2,1.2278,0,1,0.12042,0,0,
32,0.46324,1,2,2,1.3571,0,1,0.12574,0,0,
32,0.42929,1,1,1,1.9241,0,2,0.67575,0,0,
32,0.41186,1,1,1,1.5025,0,1,0.22139,0,0,
32,0.48835,1,1,1,1.8032,0,1,0.22238,0,0,
32,0.43448,1,1,1,1.3503,0,2,0.71677,0,0,
32,0.45532,1,2,2,1.4587,0,2,0.36964,0,0,
32,0.61561,1,1,1,1.9511,0,1,0.2375,0,0,
32,0.92408,1,2,2,1.133,0,1,0.1187,0,0,
32,0.45597,1,2,2,1.0703,0,1,0.12223,0,0,
32,0.3878,1,1,1,1.7061,0,2,0.64821,0,0,
32,0.37124,1,1,1,1.9317,0,1,0.23934,0,0,
32,0.66989,1,2,2,1.1089,0,2,0.35986,0,0,
32,0.48263,1,2,2,1.6517,0,2,0.36195,0,0,
32,0.96238,1,1,1,1.1461,0,1,0.23514,0,0,
32,0.42223,1,2,2,1.694,0,1,0.11812,0,0,
32,0.68066,1,1,1,1.6256,0,1,0.23138,0,0,
32,0.4558,1,1,1,1.0437,0,1,0.22354,0,0,
32,0.43239,1,2,2,1.7979,0,1,0.11778,0,0,
32,0.44366,1,1,1,1.9862,0,2,0.69573,0,0,
32,0.37925,1,2,2,1.4367,0,2,0.35837,0,0,
32,0.48281,1,2,2,1.3447,0,1,0.11499,0,0,
32,0.75051,1,2,2,1.0488,0,2,0.35031,0,0,
32,0.53208,1,1,1,1.2252,0,2,0.72232,0,0,
32,0.50243,1,2,2,1.581,0,1,0.12316,0,0,
32,0.41499,1,2,2,1.6014,0,2,0.36781,0,0,
32,0.67658,1,1,1,1.2525,0,2,0.67057,0,0,
32,0.63208,1,1,1,1.6543,0,1,0.21578,0,0,
32,0.41815,1,1,1,1.0601,0,2,0.6897,0,0,
32,0.3538,1,1,1,1.9405,0,2,0.64857,0,0,
32,0.51693,1,1,1,1.0925,0,2,0.66585,0,0,
32,0.4601,1,1,1,1.334,0,2,0.6602,0,0,
32,0.64447,1,1,1,1.651,0,1,0.22672,0,0,
32,0.47866,1,2,2,1.5039,0,2,0.37246,0,0,
32,0.56384,1,1,1,1.5309,0,2,0.69428,0,0,
32,0.43178,1,2,2,1.3791,0,2,0.3535,0,0,
32,0.35075,1,2,2,1.7689,0,2,0.35258,0,0,
32,0.48322,1,2,2,1.2825,0,1,0.11467,0,0,
32,0.35721,1,2,2,1.6493,0,1,0.11591,0,0,
32,0.82102,1,2,2,1.9222,0,1,0.12348,0,0,
32,0.49666,1,2,2,1.3307,0,2,0.34445,0,0,
32,0.93401,1,2,2,1.8134,0,2,0.37891,0,0,
32,0.71502,1,2,2,1.7876,0,2,0.35821,0,0,
32,0.50782,1,1,1,1.1243,0,1,0.21727,0,0,
32,0.45852,1,2,2,1.1574,0,1,0.12138,0,0,
32,0.89949,1,1,1,1.415,0,2,0.71077,0,0,
32,0.43012,1,2,2,1.6873,0,1,0.11828,0,0,
32,0.32836,1,2,2,1.6577,0,2,0.37295,0,0,
32,NaN,1,0,2,1.68,NaN,1,0.1233,0,0,
32,0.49848,1,1,1,1.0094,0,2,0.69133,0,0,
32,0.69051,1,1,1,1.1286,0,2,0.67451,0,0,
32,0.51314,1,1,1,1.7639,0,2,0.67582,0,0,
32,0.52188,1,2,2,1.8419,0,1,0.11938,0,0,
32,NaN,1,0,1,1.7469,NaN,2,0.6781,0,0,
32,0.40971,1,1,1,1.9445,0,1,0.22078,0,0,
32,0.49426,1,1,1,1.9197,0,1,0.22796,0,0,
32,0.61487,1,2,2,1.2231,0,1,0.11416,0,0,
32,0.46103,1,2,2,1.5098,0,1,0.12127,0,0,
32,0.37031,1,2,2,1.7877,0,2,0.34285,0,0,
32,0.98014,1,2,2,1.5225,0,2,0.37693,0,0,
32,0.65408,1,1,1,1.6174,0,1,0.23769,0,0,
32,0.47542,1,2,2,1.5582,0,1,0.11815,0,0,
32,0.52096,1,1,1,1.731,0,1,0.24084,0,0,
32,0.90835,1,1,1,1.0634,0,1,0.2403,0,0,
32,0.68499,1,2,2,1.4928,0,2,0.38202,0,0,
32,0.76519,1,2,2,1.2299,0,1,0.11572,0,0,
32,0.85509,1,2,2,1.3374,0,1,0.11368,0,0,
32,0.45925,1,1,1,1.5516,0,1,0.22153,0,0,
32,0.59152,1,1,1,1.7437,0,1,0.22404,0,0,
32,0.71104,1,2,2,1.4123,0,1,0.11673,0,0,
32,NaN,1,0,2,1.5076,NaN,2,0.37192,0,0,
32,0.40173,1,2,2,1.129,0,1,0.11663,0,0,
32,0.76778,1,2,2,1.2148,0,2,0.35898,0,0,
32,0.67251,1,2,2,1.2928,0,2,0.35126,0,0,
32,0.54963,1,1,1,1.45,0,1,0.22403,0,0,
32,0.40659,1,2,2,1.2403,0,2,0.37827,0,0,
32,0.55456,1,1,1,1.2633,0,2,0.64681,0,0,
32,0.5284,1,1,1,1.8916,0,2,0.65577,0,0,
32,0.39442,1,2,2,1.5861,0,1,0.11883,0,0,
32,0.33016,1,2,2,1.9387,0,2,0.37556,0,0,
32,0.42306,1,1,1,1.6181,0,2,0.66192,0,0,
32,0.41057,1,1,1,1.2507,0,1,0.23976,0,0,
32,0.49104,1,1,1,1.1025,0,2,0.72215,0,0,
32,0.4077,1,2,2,1.5464,0,1,0.11866,0,0,
32,0.42372,1,1,1,1.4426,0,2,0.72341,0,0,
32,0.51358,1,1,1,1.6915,0,1,0.21833,0,0,
32,0.40323,1,1,1,1.7594,0,1,0.235,0,0,
32,0.49603,1,2,2,1.3994,0,2,0.36443,0,0,
32,0.92183,1,1,2,1.2021,1,1,0.12564,0,1,
32,0.84169,1,2,1,1.4924,1,1,0.22288,0,1,
32,0.4413,1,2,2,1.7294,0,2,0.35031,0,1,
32,1.5483,1,2,1,1.955,1,1,0.23692,0,1,
32,0.54624,1,2,1,1.7624,1,1,0.22642,0,1,
32,0.54563,1,2,1,1.0801,1,1,0.22823,0,1,
32,0.51824,1,2,1,1.9382,1,1,0.21993,0,1,
32,0.34725,1,2,1,1.9745,1,2,0.65723,0,1,
32,0.35053,1,2,1,1.6071,1,2,0.71693,0,1,
32,0.33239,1,2,1,1.9575,1,2,0.72406,0,1,
32,0.50121,1,1,2,1.3307,1,1,0.11886,0,1,
32,0.52215,1,2,1,1.9012,1,1,0.23679,0,1,
32,0.45644,1,1,2,1.0004,1,2,0.3805,0,1,
32,0.5855,1,2,1,1.4833,1,2,0.71587,0,1,
32,0.79359,1,2,1,1.1475,1,2,0.71152,0,1,
32,0.75393,1,2,1,1.315,1,1,0.23291,0,1,
32,0.96678,1,1,2,1.1714,1,1,0.11591,0,1,
32,0.56212,1,2,1,1.5929,1,1,0.22126,0,1,
32,0.72926,1,2,1,1.6576,1,2,0.67897,0,1,
32,0.53344,1,1,2,1.349,1,2,0.3419,0,1,
32,0.50642,1,2,1,1.0537,1,2,0.66615,0,1,
32,0.43571,1,1,1,1.0472,0,2,0.72302,0,1,
32,0.54661,1,1,2,1.0559,1,2,0.35342,0,1,
32,0.55413,1,2,1,1.0715,1,2,0.68981,0,1,
32,0.4361,1,1,2,1.0157,1,1,0.12193,0,1,
32,0.33168,1,1,2,1.9737,1,2,0.37821,0,1,
32,0.46705,1,1,2,1.7348,1,2,0.35682,0,1,
32,0.36405,1,1,2,1.7524,1,2,0.36922,0,1,
32,0.9168,1,1,2,1.0333,1,1,0.11635,0,1,
32,0.34473,1,1,2,1.1176,1,2,0.34339,0,1,
32,0.52811,1,2,1,1.2613,1,2,0.69384,0,1,
32,0.30921,1,2,1,1.8934,1,2,0.6991,0,1,
32,0.37409,1,2,1,1.9721,1,1,0.22277,0,1,
32,0.56411,1,2,1,1.9941,1,1,0.22993,0,1,
32,0.427,1,2,1,1.3468,1,2,0.66981,0,1,
32,0.45558,1,1,2,1.2923,1,2,0.37422,0,1,
32,0.38855,1,1,2,1.1872,1,2,0.35557,0,1,
32,0.31066,1,1,2,1.7431,1,1,0.12316,0,1,
32,0.32345,1,1,2,1.718,1,1,0.12224,0,1,
32,0.31453,1,1,2,1.1889,1,2,0.38096,0,1,
32,0.59921,1,2,1,1.4339,1,1,0.22032,0,1,
32,0.74891,1,1,2,1.0456,1,1,0.12174,0,1,
32,1.2178,1,2,1,1.6555,1,1,0.21737,0,1,
32,0.61862,1,1,2,1.781,1,2,0.36297,0,1,
32,0.52336,1,2,1,1.8629,1,2,0.71195,0,1,
32,0.39574,1,1,2,1.7854,1,1,0.11417,0,1,
32,0.68229,1,2,2,1.4335,0,1,0.11803,0,1,
32,0.6693,1,2,1,1.3478,1,1,0.23361,0,1,
32,0.64902,1,1,2,1.0554,1,1,0.12547,0,1,
32,0.72742,1,2,1,1.8194,1,1,0.22807,0,1,
32,0.64902,1,2,1,1.106,1,2,0.72423,0,1,
32,0.67894,1,1,2,1.0061,1,2,0.35816,0,1,
32,0.43018,1,1,2,1.275,1,2,0.35158,0,1,
32,0.58447,1,1,2,1.9428,1,2,0.36,0,1,
32,0.37801,1,1,2,1.6743,1,1,0.11576,0,1,
32,1.1369,1,2,1,1.3857,1,1,0.21926,0,1,
32,0.7899,1,1,2,1.8569,1,1,0.11721,0,1,
32,0.47285,1,1,2,1.6748,1,1,0.12399,0,1,
32,0.72998,1,2,1,1.6081,1,1,0.23093,0,1,
32,0.49265,1,1,2,1.4394,1,1,0.12702,0,1,
32,0.72789,1,1,2,1.9613,1,2,0.37266,0,1,
32,0.76995,1,2,1,1.8229,1,1,0.22996,0,1,
32,0.62671,1,1,2,1.0105,1,1,0.11969,0,1,
32,0.69482,1,2,1,1.1416,1,2,0.66756,0,1,
32,0.48453,1,2,1,1.4828,1,2,0.7043,0,1,
32,0.45988,1,2,1,1.5806,1,1,0.21764,0,1,
32,0.96439,1,2,1,1.293,1,1,0.21795,0,1,
32,0.49926,1,2,1,1.4389,1,2,0.70288,0,1,
32,1.6838,1,1,2,1.3983,1,2,0.35512,0,1,
32,0.85789,1,2,2,1.1373,0,2,0.36449,0,1,
32,0.94605,1,2,1,1.9528,1,2,0.66847,0,1,
32,0.67792,1,2,1,1.36,1,1,0.23372,0,1,
32,0.80903,1,1,2,1.837,1,1,0.11846,0,1,
32,0.63552,1,1,2,1.0413,1,1,0.12344,0,1,
32,0.33807,1,1,2,1.4238,1,1,0.12744,0,1,
32,0.47851,1,1,2,1.0756,1,1,0.11474,0,1,
32,0.40708,1,1,2,1.3138,1,2,0.3598,0,1,
32,1.0421,1,2,1,1.946,1,1,0.21762,0,1,
32,0.40187,1,1,2,1.8545,1,1,0.12353,0,1,
32,0.55096,1,1,2,1.1735,1,1,0.12622,0,1,
32,0.34209,1,1,2,1.5359,1,2,0.34433,0,1,
32,0.74227,1,2,1,1.2949,1,2,0.6857,0,1,
32,0.66708,1,2,1,1.9029,1,2,0.68829,0,1,
32,1.3426,1,1,1,1.0814,0,2,0.69887,0,1,
32,0.66641,1,1,2,1.7875,1,2,0.35289,0,1,
32,0.90671,1,2,1,1.1744,1,2,0.6922,0,1,
32,1.8444,1,2,2,1.72,0,1,0.11627,0,1,
32,NaN,1,0,2,1.232,NaN,2,0.3677,0,1,
32,1.1286,1,1,1,1.2071,0,2,0.69993,0,1,
32,0.7125,1,2,1,1.2161,1,1,0.22699,0,1,
32,0.49516,1,2,1,1.9767,1,2,0.65769,0,1,
32,0.81047,1,2,1,1.3818,1,1,0.226,0,1,
32,0.55079,1,1,2,1.6353,1,2,0.36514,0,1,
32,0.76346,1,2,1,1.0466,1,1,0.22343,0,1,
32,0.42713,1,1,2,1.2321,1,1,0.12504,0,1,
32,0.70194,1,2,1,1.8748,1,1,0.21835,0,1,
32,0.40827,1,1,2,1.4601,1,2,0.35092,0,1,
32,0.93517,1,1,2,1.0031,1,2,0.37978,0,1,
32,0.71629,1,1,2,1.4649,1,1,0.12254,0,1,
32,0.5937,1,2,1,1.8241,1,2,0.70434,0,1,
32,1.0143,1,1,2,1.0905,0,2,0.36187,1,0,
32,1.3759,1,1,1,1.0082,1,1,0.2337,1,0,
32,0.41065,1,2,2,1.3728,1,2,0.35127,1,0,
32,0.33497,1,1,1,1.7883,1,2,0.65445,1,0,
32,0.40048,1,2,2,1.4473,1,1,0.12106,1,0,
32,0.57592,1,2,2,1.0996,1,1,0.11654,1,0,
32,0.54778,1,2,2,1.8058,1,2,0.35339,1,0,
32,0.40969,1,1,1,1.6595,1,2,0.72243,1,0,
32,0.49385,1,1,1,1.4524,1,1,0.22309,1,0,
32,0.53627,1,2,2,1.5334,1,1,0.12672,1,0,
32,0.72875,1,2,2,1.5267,1,1,0.11914,1,0,
32,0.40683,1,1,1,1.6297,1,2,0.64663,1,0,
32,0.36765,1,1,1,1.6466,1,2,0.66933,1,0,
32,0.48246,1,1,1,1.1918,1,1,0.21917,1,0,
32,0.35837,1,1,1,1.8017,1,2,0.72417,1,0,
32,0.51315,1,1,1,1.1966,1,2,0.68022,1,0,
32,0.35096,1,1,1,1.4113,1,1,0.22923,1,0,
32,0.74086,1,2,2,1.2357,1,1,0.11712,1,0,
32,0.41058,1,2,2,1.2722,1,2,0.37738,1,0,
32,0.58409,1,1,1,1.0087,1,1,0.21786,1,0,
32,0.53491,1,2,2,1.9283,1,2,0.37483,1,0,
32,0.43533,1,1,1,1.5202,1,2,0.67842,1,0,
32,0.47027,1,2,2,1.4641,1,2,0.37903,1,0,
32,0.46149,1,1,1,1.5235,1,1,0.22878,1,0,
32,0.4554,1,1,1,1.3368,1,1,0.23799,1,0,
32,0.55984,1,1,1,1.3324,1,2,0.67264,1,0,
32,1.1147,1,2,2,1.9883,1,1,0.119,1,0,
32,0.7201,1,2,2,1.4737,1,2,0.36521,1,0,
32,0.93861,1,2,2,1.7469,1,1,0.12621,1,0,
32,0.6144,1,2,2,1.67,1,2,0.34618,1,0,
32,0.65538,1,1,1,1.7956,1,2,0.649,1,0,
32,0.76588,1,1,1,1.2725,1,2,0.67638,1,0,
32,0.87289,1,2,2,1.2839,1,1,0.12171,1,0,
32,0.62334,1,2,2,1.7173,1,1,0.12633,1,0,
32,0.57554,1,2,2,1.1846,1,1,0.11755,1,0,
32,0.46622,1,1,1,1.8337,1,2,0.68769,1,0,
32,1.3385,1,1,1,1.1697,1,1,0.23556,1,0,
32,0.40315,1,2,2,1.9533,1,2,0.35401,1,0,
32,0.47215,1,2,2,1.7225,1,1,0.11489,1,0,
32,0.78952,1,1,1,1.1342,1,1,0.22652,1,0,
32,0.56068,1,2,2,1.8531,1,1,0.11402,1,0,
32,0.89424,1,2,2,1.9317,1,2,0.36849,1,0,
32,0.44564,1,2,2,1.5642,1,1,0.11511,1,0,
32,0.42646,1,1,1,1.3988,1,2,0.66088,1,0,
32,0.47848,1,2,2,1.4416,1,1,0.12079,1,0,
32,0.39363,1,1,1,1.7017,1,1,0.23141,1,0,
32,0.49184,1,1,1,1.26,1,2,0.67425,1,0,
32,0.41671,1,1,1,1.0285,1,2,0.69257,1,0,
32,0.37778,1,1,1,1.948,1,1,0.23732,1,0,
32,0.51273,1,2,2,1.9962,1,2,0.36961,1,0,
32,0.80401,1,2,2,1.7795,1,1,0.1189,1,0,
32,0.68072,1,1,1,1.9894,1,2,0.68982,1,0,
32,1.091,1,2,2,1.4876,1,1,0.11695,1,0,
32,0.80304,1,2,2,1.128,1,2,0.3707,1,0,
32,0.72016,1,2,2,1.4644,1,1,0.11822,1,0,
32,0.46358,1,1,1,1.7426,1,2,0.65174,1,0,
32,0.34318,1,2,2,1.6734,1,1,0.11766,1,0,
32,0.58539,1,1,1,1.874,1,2,0.66859,1,0,
32,0.97717,1,1,1,1.7583,1,1,0.21586,1,0,
32,0.48208,1,1,1,1.6172,1,2,0.65909,1,0,
32,0.51211,1,2,2,1.2748,1,2,0.37644,1,0,
32,0.42695,1,2,2,1.3364,1,2,0.36766,1,0,
32,0.53513,1,1,1,1.8357,1,2,0.7128,1,0,
32,0.60388,1,1,1,1.3859,1,2,0.66633,1,0,
32,0.61886,1,2,2,1.0803,1,2,0.37796,1,0,
32,0.86125,1,1,1,1.8656,1,1,0.22052,1,0,
32,0.43016,1,1,1,1.4354,1,2,0.72169,1,0,
32,0.58772,1,2,2,1.1721,1,2,0.35758,1,0,
32,0.9197,1,1,1,1.0043,1,1,0.22105,1,0,
32,0.5215,1,2,2,1.6525,1,1,0.12487,1,0,
32,0.41673,1,1,1,1.3697,1,1,0.22441,1,0,
32,0.56323,1,1,1,1.3761,1,2,0.68425,1,0,
32,0.51078,1,2,2,1.4413,1,1,0.12385,1,0,
32,0.59416,1,1,1,1.5161,1,1,0.23692,1,0,
32,0.64421,1,1,1,1.3001,1,1,0.22529,1,0,
32,0.46423,1,1,1,1.4783,1,1,0.2177,1,0,
32,0.64001,1,1,1,1.0062,1,1,0.22197,1,0,
32,0.4562,1,1,1,1.1714,1,2,0.70752,1,0,
32,0.58417,1,2,2,1.3036,1,2,0.37975,1,0,
32,0.53259,1,2,2,1.7445,1,1,0.12132,1,0,
32,0.49897,1,2,2,1.5809,1,2,0.3798,1,0,
32,0.468,1,2,2,1.7012,1,2,0.36519,1,0,
32,0.53203,1,2,2,1.8047,1,1,0.12733,1,0,
32,0.57326,1,1,1,1.852,1,1,0.23504,1,0,
32,0.65222,1,2,2,1.1177,1,2,0.34828,1,0,
32,0.81817,1,2,2,1.6573,1,1,0.12061,1,0,
32,0.69958,1,2,2,1.753,1,2,0.36699,1,0,
32,0.58268,1,1,1,1.7021,1,1,0.23794,1,0,
32,1.0719,1,1,1,1.6051,1,2,0.69206,1,0,
32,1.8416,1,1,1,1.0383,1,1,0.24155,1,0,
32,0.58127,1,2,2,1.1952,1,2,0.34603,1,0,
32,0.94341,1,1,1,1.3307,1,1,0.22268,1,0,
32,0.58007,1,1,1,1.6428,1,1,0.22744,1,0,
32,0.4633,1,2,2,1.2174,1,1,0.11535,1,0,
32,0.47741,1,2,2,1.0769,1,2,0.34999,1,0,
32,0.50473,1,1,1,1.9806,1,2,0.65947,1,0,
32,0.53009,1,1,1,1.2068,1,1,0.2326,1,0,
32,0.55072,1,2,2,1.9833,1,1,0.11798,1,0,
32,0.37316,1,2,2,1.6104,1,2,0.37341,1,0,
32,0.4708,1,2,2,1.248,1,2,0.36304,1,0,
32,0.69807,1,2,1,1.4796,0,1,0.24146,1,1,
32,0.92385,1,2,2,1.8888,1,2,0.35148,1,1,
32,0.61225,1,1,1,1.2834,1,1,0.23584,1,1,
32,0.45746,1,2,2,1.7841,1,1,0.11541,1,1,
32,0.47734,1,1,1,1.1704,1,2,0.64851,1,1,
32,0.63771,1,1,1,1.7313,1,2,0.68051,1,1,
32,0.69365,1,2,1,1.2466,0,2,0.68911,1,1,
32,0.62149,1,1,1,1.0818,1,2,0.66326,1,1,
32,0.6007,1,2,2,1.8529,1,1,0.11555,1,1,
32,1.0783,1,1,1,1.6866,1,2,0.69822,1,1,
32,0.77828,1,1,1,1.9581,1,1,0.22424,1,1,
32,0.70814,1,2,2,1.9851,1,2,0.36156,1,1,
32,0.80839,1,2,1,1.5347,0,1,0.23321,1,1,
32,0.84715,1,2,2,1.906,1,2,0.3651,1,1,
32,0.91273,1,2,2,1.4766,1,2,0.36137,1,1,
32,0.50565,1,1,1,1.8897,1,2,0.70625,1,1,
32,0.48369,1,1,1,1.0238,1,2,0.69887,1,1,
32,0.4967,1,2,2,1.1287,1,2,0.35369,1,1,
32,0.69212,1,2,2,1.7406,1,2,0.3752,1,1,
32,0.55253,1,2,2,1.391,1,1,0.12262,1,1,
32,0.63793,1,2,2,1.3936,1,1,0.12159,1,1,
32,0.72877,1,2,2,1.6018,1,1,0.11389,1,1,
32,0.73402,1,1,1,1.0239,1,1,0.23706,1,1,
32,0.86028,1,2,2,1.3877,1,2,0.34542,1,1,
32,0.86519,1,1,1,1.0567,1,1,0.23716,1,1,
32,0.61723,1,1,1,1.6896,1,1,0.22382,1,1,
32,0.63206,1,2,2,1.5204,1,1,0.1194,1,1,
32,1.1141,1,2,2,1.0761,1,1,0.12451,1,1,
32,1.3752,1,2,1,1.4063,0,1,0.21882,1,1,
32,0.89871,1,2,2,1.4302,1,1,0.12188,1,1,
32,0.58584,1,1,1,1.6593,1,1,0.23963,1,1,
32,0.54364,1,1,1,1.2184,1,1,0.23165,1,1,
32,0.46905,1,1,1,1.0811,1,2,0.64942,1,1,
32,0.35449,1,1,1,1.4677,1,2,0.69993,1,1,
32,0.84396,1,2,2,1.7287,1,1,0.11705,1,1,
32,0.57533,1,1,1,1.614,1,1,0.23311,1,1,
32,0.62332,1,2,2,1.9006,1,2,0.35548,1,1,
32,0.4581,1,1,1,1.2528,1,2,0.68744,1,1,
32,0.42844,1,1,1,1.2201,1,2,0.66259,1,1,
32,0.82963,1,2,2,1.2358,1,1,0.12613,1,1,
32,0.57738,1,2,2,1.8101,1,1,0.11863,1,1,
32,0.45067,1,2,2,1.7024,1,2,0.34403,1,1,
32,0.51318,1,2,2,1.8785,1,1,0.11404,1,1,
32,0.65005,1,1,1,1.711,1,2,0.6942,1,1,
32,0.57577,1,2,2,1.6611,1,2,0.37975,1,1,
32,0.61711,1,1,1,1.4396,1,2,0.67009,1,1,
32,0.78241,1,2,2,1.5628,1,1,0.12382,1,1,
32,0.55413,1,1,2,1.9903,0,2,0.35245,1,1,
32,NaN,1,0,2,1.9573,NaN,1,0.11528,1,1,
32,1.2704,1,1,1,1.3368,1,1,0.22841,1,1,
32,1.0457,1,1,1,1.1555,1,1,0.22511,1,1,
32,0.55117,1,2,2,1.4171,1,2,0.38158,1,1,
32,0.4485,1,1,1,1.5545,1,2,0.66793,1,1,
32,0.84821,1,2,2,1.0298,1,2,0.36498,1,1,
32,0.5215,1,2,2,1.8667,1,2,0.3641,1,1,
32,0.45582,1,2,2,1.8944,1,1,0.12199,1,1,
32,0.47094,1,2,2,1.4972,1,2,0.36366,1,1,
32,0.80721,1,1,1,1.2093,1,1,0.22234,1,1,
32,0.4909,1,1,1,1.7216,1,2,0.65725,1,1,
32,0.39898,1,1,1,1.6997,1,1,0.23424,1,1,
32,0.73637,1,2,2,1.4607,1,2,0.34248,1,1,
32,0.54364,1,2,2,1.1706,1,1,0.12463,1,1,
32,0.55688,1,1,1,1.7944,1,2,0.6768,1,1,
32,0.63759,1,2,2,1.8885,1,2,0.3751,1,1,
32,1.3233,1,2,2,1.1425,1,1,0.12708,1,1,
32,0.59631,1,1,1,1.9397,1,2,0.67805,1,1,
32,0.6066,1,2,2,1.0003,1,2,0.34304,1,1,
32,0.47925,1,1,1,1.4388,1,2,0.70712,1,1,
32,0.57509,1,1,1,1.0112,1,2,0.69445,1,1,
32,0.97657,1,2,2,1.2345,1,1,0.1205,1,1,
32,0.55658,1,1,1,1.707,1,2,0.68948,1,1,
32,0.57033,1,2,2,1.6942,1,2,0.35327,1,1,
32,0.4659,1,1,2,1.2651,0,2,0.37154,1,1,
32,1.3263,1,1,1,1.3266,1,2,0.67139,1,1,
32,0.95395,1,2,1,1.0932,0,1,0.23833,1,1,
32,1.1565,1,2,2,1.0416,1,1,0.11809,1,1,
32,0.85119,1,2,2,1.7593,1,1,0.12455,1,1,
32,0.4062,1,2,2,1.3249,1,1,0.12467,1,1,
32,0.78617,1,1,1,1.5218,1,2,0.64961,1,1,
32,1.1686,1,1,1,1.9519,1,1,0.2255,1,1,
32,0.64539,1,2,2,1.669,1,1,0.127,1,1,
32,0.9052,1,1,1,1.4731,1,1,0.22581,1,1,
32,0.58566,1,1,1,1.6494,1,2,0.67091,1,1,
32,0.65566,1,2,2,1.6656,1,2,0.36683,1,1,
32,0.6639,1,1,1,1.2301,1,1,0.23764,1,1,
32,0.56067,1,2,2,1.8049,1,2,0.37331,1,1,
32,0.51146,1,1,1,1.5028,1,1,0.22905,1,1,
32,0.75095,1,2,2,1.434,1,2,0.37131,1,1,
32,0.69489,1,2,2,1.709,1,2,0.37122,1,1,
32,0.60978,1,1,1,1.5553,1,2,0.6798,1,1,
32,0.6436,1,2,2,1.255,1,1,0.12533,1,1,
32,0.48167,1,1,1,1.0752,1,1,0.2279,1,1,
32,0.5808,1,2,2,1.5891,1,2,0.38024,1,1,
32,0.64154,1,2,2,1.6742,1,1,0.12457,1,1,
32,0.58942,1,1,1,1.588,1,2,0.65583,1,1,
32,0.64198,1,2,2,1.5337,1,1,0.11679,1,1,
32,0.4852,1,1,1,1.4726,1,1,0.21848,1,1,
32,0.57519,1,1,1,1.3238,1,1,0.22894,1,1,
32,0.56565,1,1,1,1.431,1,1,0.2167,1,1,
32,0.36791,1,1,1,1.7649,1,1,0.22722,1,1,
32,0.44501,1,2,1,1.3928,1,1,0.23506,0,0,
32,0.38694,1,2,1,1.1546,1,2,0.68947,0,0,
32,0.52917,1,2,1,1.8323,1,2,0.69639,0,0,
32,0.36245,1,2,1,1.1498,1,2,0.69483,0,0,
32,0.58268,1,1,2,1.6795,1,1,0.12366,0,0,
32,0.56465,1,2,1,1.7501,1,1,0.23844,0,0,
32,0.49603,1,1,2,1.0149,1,2,0.36808,0,0,
32,0.49212,1,1,2,1.1422,1,2,0.34569,0,0,
32,0.37407,1,1,2,1.0307,1,2,0.37012,0,0,
32,0.39019,1,1,2,1.8087,1,1,0.11964,0,0,
32,0.6064,1,2,1,1.0471,1,2,0.69533,0,0,
32,0.90994,1,1,2,1.6662,1,1,0.12245,0,0,
32,0.56616,1,1,2,1.456,1,2,0.36861,0,0,
32,0.40105,1,1,2,1.803,1,2,0.34324,0,0,
32,0.4584,1,2,1,1.3584,1,2,0.66273,0,0,
32,0.44975,1,1,2,1.0253,1,2,0.34758,0,0,
32,0.52468,1,1,2,1.2186,1,1,0.12646,0,0,
32,0.4653,1,2,1,1.7109,1,2,0.68533,0,0,
32,0.60657,1,1,2,1.5489,1,2,0.3684,0,0,
32,0.35595,1,2,1,1.8697,1,1,0.23249,0,0,
32,0.59948,1,2,1,1.7388,1,1,0.21732,0,0,
32,0.83836,1,2,1,1.1032,1,1,0.22094,0,0,
32,0.44428,1,2,1,1.9714,1,2,0.66734,0,0,
32,0.4958,1,1,2,1.7387,1,1,0.12625,0,0,
32,NaN,1,0,2,1.0139,NaN,1,0.11668,0,0,
32,0.52862,1,2,1,1.6791,1,1,0.22154,0,0,
32,0.57689,1,2,1,1.4855,1,2,0.69816,0,0,
32,0.82433,1,2,1,1.0347,1,1,0.23198,0,0,
32,1.0386,1,1,2,1.1144,1,2,0.36969,0,0,
32,0.60642,1,1,2,1.0766,1,2,0.37541,0,0,
32,0.878,1,1,2,1.6078,1,2,0.37069,0,0,
32,0.38869,1,1,2,1.2335,1,2,0.34168,0,0,
32,NaN,1,0,2,1.142,NaN,1,0.12154,0,0,
32,0.58464,1,2,1,1.5302,1,1,0.23937,0,0,
32,0.49103,1,2,1,1.9303,1,1,0.21757,0,0,
32,0.40551,1,2,1,1.6169,1,2,0.68844,0,0,
32,0.6066,1,2,1,1.6899,1,2,0.71892,0,0,
32,0.60994,1,1,2,1.2344,1,1,0.11628,0,0,
32,0.4983,1,1,2,1.2068,1,1,0.12072,0,0,
32,NaN,1,0,2,1.0374,NaN,1,0.11531,0,0,
32,0.50835,1,2,1,1.6634,1,2,0.704,0,0,
32,0.59466,1,1,2,1.5073,1,2,0.3535,0,0,
32,1.4826,1,2,1,1.4858,1,1,0.21998,0,0,
32,0.57252,1,2,1,1.8617,1,2,0.72303,0,0,
32,0.35367,1,2,1,1.9655,1,2,0.7011,0,0,
32,0.51592,1,1,2,1.7597,1,1,0.12497,0,0,
32,0.37948,1,1,2,1.2467,1,2,0.36882,0,0,
32,0.51214,1,2,1,1.6763,1,1,0.23307,0,0,
32,0.59039,1,1,2,1.7593,1,1,0.1208,0,0,
32,0.45934,1,1,2,1.5862,1,1,0.11614,0,0,
32,0.43327,1,1,2,1.8224,1,2,0.36083,0,0,
32,0.40185,1,1,2,1.9268,1,1,0.1212,0,0,
32,0.42202,1,2,1,1.6376,1,1,0.23683,0,0,
32,0.76163,1,1,2,1.0189,1,2,0.34897,0,0,
32,0.52386,1,2,1,1.1843,1,1,0.22877,0,0,
32,0.90032,1,1,2,1.0267,1,2,0.37415,0,0,
32,0.54747,1,2,1,1.935,1,1,0.22427,0,0,
32,0.47107,1,2,1,1.4845,1,1,0.2293,0,0,
32,0.48417,1,1,2,1.7948,1,2,0.37027,0,0,
32,0.48621,1,1,2,1.4568,1,1,0.11632,0,0,
32,0.40207,1,2,1,1.4942,1,2,0.69555,0,0,
32,0.52685,1,1,2,1.4257,1,1,0.11364,0,0,
32,0.61078,1,1,2,1.8918,1,1,0.12056,0,0,
32,0.39122,1,1,2,1.8743,1,2,0.36403,0,0,
32,0.42152,1,2,1,1.6332,1,2,0.64638,0,0,
32,0.61201,1,1,2,1.2923,1,2,0.37781,0,0,
32,0.37269,1,2,1,1.2917,1,2,0.71088,0,0,
32,0.54779,1,1,2,1.2455,1,2,0.37274,0,0,
32,0.53698,1,1,2,1.7043,1,2,0.3733,0,0,
32,0.53588,1,1,2,1.7746,1,1,0.11863,0,0,
32,0.7258,1,2,1,1.8227,1,1,0.2191,0,0,
32,0.5474,1,1,2,1.8062,1,1,0.11834,0,0,
32,0.50098,1,1,2,1.2538,1,1,0.1224,0,0,
32,1.0577,1,2,1,1.8005,1,2,0.71901,0,0,
32,0.76626,1,2,1,1.6297,1,1,0.21761,0,0,
32,0.56604,1,1,2,1.2315,1,2,0.37118,0,0,
32,1.0335,1,1,2,1.3811,1,1,0.11436,0,0,
32,0.67508,1,1,2,1.4532,1,2,0.37197,0,0,
32,0.71375,1,1,2,1.5006,1,1,0.11987,0,0,
32,0.92459,1,2,1,1.5406,1,2,0.64922,0,0,
32,0.72862,1,2,1,1.3451,1,2,0.71161,0,0,
32,0.65843,1,2,1,1.2914,1,1,0.21941,0,0,
32,1.0677,1,2,1,1.7035,1,2,0.65447,0,0,
32,0.37233,1,2,1,1.9341,1,2,0.66637,0,0,
32,0.74588,1,1,2,1.5942,1,2,0.35348,0,0,
32,0.9849,1,2,1,1.5931,1,1,0.23085,0,0,
32,0.68335,1,1,2,1.7387,1,1,0.12286,0,0,
32,0.72095,1,2,1,1.3726,1,1,0.24121,0,0,
32,NaN,1,0,1,1.4533,NaN,1,0.24137,0,0,
32,0.47175,1,2,1,1.5094,1,2,0.70472,0,0,
32,0.50041,1,1,2,1.9287,1,1,0.1173,0,0,
32,0.62897,1,1,2,1.4508,1,1,0.12683,0,0,
32,0.76803,1,2,1,1.6374,1,1,0.22572,0,0,
32,1.0131,1,2,1,1.4594,1,1,0.22072,0,0,
32,0.73292,1,1,2,1.5538,1,2,0.36653,0,0,
32,NaN,1,0,1,1.0412,NaN,1,0.21566,0,0,
32,0.54206,1,2,1,1.8022,1,2,0.64909,0,0,
32,1.9825,1,2,1,1.6715,1,2,0.65941,0,0,
32,0.62038,1,2,1,1.2003,1,2,0.66094,0,0,
32,0.9422,1,2,1,1.0146,1,1,0.23388,0,0,
32,0.75401,1,2,2,1.8053,0,1,0.12237,0,1,
32,1.4489,1,2,1,1.269,1,2,0.66638,0,1,
32,0.42137,1,1,2,1.434,1,1,0.11504,0,1,
32,1.2737,1,1,2,1.4018,1,2,0.3433,0,1,
32,0.54808,1,1,2,1.6081,1,2,0.36622,0,1,
32,0.36565,1,1,2,1.7701,1,1,0.12316,0,1,
32,0.51516,1,2,1,1.9411,1,2,0.66663,0,1,
32,0.46686,1,1,1,1.1315,0,1,0.226,0,1,
32,0.34722,1,2,1,1.2557,1,2,0.67364,0,1,
32,0.46662,1,1,2,1.3783,1,1,0.11472,0,1,
32,0.38371,1,1,2,1.9937,1,1,0.11456,0,1,
32,0.45522,1,1,2,1.341,1,2,0.3457,0,1,
32,0.45779,1,2,1,1.8996,1,2,0.69828,0,1,
32,0.93821,1,1,2,1.2375,1,1,0.11654,0,1,
32,0.52031,1,2,1,1.22,1,2,0.66375,0,1,
32,0.51919,1,2,1,1.9911,1,2,0.6465,0,1,
32,0.54563,1,2,1,1.9511,1,1,0.23409,0,1,
32,0.4009,1,1,2,1.6382,1,2,0.36367,0,1,
32,0.52007,1,1,2,1.5041,1,1,0.1211,0,1,
32,0.4623,1,1,2,1.3581,1,1,0.12378,0,1,
32,0.48866,1,2,1,1.7685,1,2,0.71018,0,1,
32,0.49469,1,1,1,1.7844,0,2,0.67579,0,1,
32,0.57209,1,2,2,1.0289,0,2,0.3463,0,1,
32,0.61327,1,1,2,1.0524,1,1,0.11623,0,1,
32,0.53863,1,1,2,1.3234,1,2,0.3704,0,1,
32,0.48793,1,2,1,1.7997,1,2,0.69762,0,1,
32,0.55717,1,2,1,1.6302,1,2,0.65033,0,1,
32,0.42427,1,1,2,1.9828,1,2,0.35634,0,1,
32,0.42711,1,1,2,1.1582,1,1,0.12025,0,1,
32,0.53923,1,2,1,1.6167,1,1,0.23536,0,1,
32,0.4511,1,1,2,1.3087,1,2,0.34677,0,1,
32,1.0732,1,2,1,1.0851,1,1,0.22766,0,1,
32,0.29816,1,1,2,1.8768,1,1,0.11458,0,1,
32,0.4929,1,2,2,1.5907,0,2,0.37327,0,1,
32,0.75848,1,2,2,1.3031,0,2,0.35673,0,1,
32,0.70558,1,2,2,1.1681,0,2,0.35032,0,1,
32,0.35465,1,2,2,1.3399,0,2,0.3441,0,1,
32,1.9214,1,2,1,1.0674,1,1,0.21725,0,1,
32,1.4052,1,1,2,1.6535,1,1,0.12644,0,1,
32,0.47038,1,2,1,1.2443,1,1,0.22042,0,1,
32,0.33341,1,1,2,1.7579,1,2,0.38061,0,1,
32,0.48598,1,2,1,1.299,1,2,0.67162,0,1,
32,0.75449,1,1,2,1.4188,1,1,0.12692,0,1,
32,0.49596,1,2,1,1.0558,1,1,0.22396,0,1,
32,0.39811,1,1,2,1.0309,1,2,0.34342,0,1,
32,0.70963,1,1,2,1.1866,1,1,0.12194,0,1,
32,0.32444,1,1,2,1.2709,1,1,0.12115,0,1,
32,0.60296,1,2,1,1.0662,1,2,0.71691,0,1,
32,0.6479,1,2,1,1.3335,1,2,0.661,0,1,
32,0.62043,1,2,1,1.0499,1,1,0.23572,0,1,
32,0.35867,1,2,1,1.1013,1,1,0.22408,0,1,
32,0.35505,1,2,1,1.0719,1,1,0.24078,0,1,
32,0.39679,1,2,1,1.9045,1,1,0.23704,0,1,
32,0.62838,1,2,1,1.3118,1,1,0.23367,0,1,
32,0.43694,1,2,1,1.5918,1,1,0.22068,0,1,
32,0.60386,1,1,2,1.3776,1,1,0.11384,0,1,
32,0.6342,1,2,1,1.9516,1,2,0.66167,0,1,
32,0.34258,1,1,2,1.7424,1,2,0.36264,0,1,
32,0.39199,1,1,2,1.8871,1,2,0.3452,0,1,
32,0.64381,1,2,1,1.5989,1,1,0.23752,0,1,
32,0.48546,1,2,1,1.6896,1,2,0.71727,0,1,
32,0.69316,1,1,2,1.3911,1,2,0.35427,0,1,
32,0.53927,1,2,1,1.2233,1,2,0.68171,0,1,
32,1.1683,1,2,1,1.1313,1,1,0.21536,0,1,
32,0.45316,1,1,2,1.1725,1,2,0.35334,0,1,
32,0.47127,1,1,2,1.9386,1,1,0.12017,0,1,
32,0.56899,1,2,1,1.0345,1,2,0.66565,0,1,
32,0.72499,1,2,1,1.8796,1,2,0.69871,0,1,
32,0.69533,1,1,2,1.5223,1,1,0.12621,0,1,
32,0.63949,1,2,1,1.8082,1,2,0.68971,0,1,
32,0.49292,1,1,2,1.4476,1,2,0.35149,0,1,
32,0.59998,1,2,1,1.3465,1,2,0.71873,0,1,
32,0.64705,1,2,1,1.7572,1,1,0.21689,0,1,
32,0.4303,1,2,1,1.3602,1,1,0.23138,0,1,
32,0.48903,1,1,2,1.5566,1,1,0.12675,0,1,
32,0.64028,1,2,1,1.8887,1,1,0.22847,0,1,
32,0.44321,1,1,2,1.8402,1,2,0.38062,0,1,
32,0.66889,1,2,1,1.244,1,1,0.22214,0,1,
32,0.50193,1,1,2,1.4356,1,1,0.12075,0,1,
32,0.57488,1,2,1,1.8286,1,1,0.2391,0,1,
32,0.4419,1,1,2,1.1527,1,1,0.11648,0,1,
32,0.36246,1,2,1,1.758,1,1,0.23679,0,1,
32,0.62831,1,2,1,1.8765,1,2,0.65623,0,1,
32,0.39976,1,2,1,1.5021,1,1,0.22642,0,1,
32,0.56936,1,1,2,1.5703,1,1,0.12569,0,1,
32,0.52853,1,1,2,1.8515,1,2,0.36971,0,1,
32,0.55781,1,2,1,1.9846,1,2,0.6839,0,1,
32,0.39136,1,1,2,1.7902,1,1,0.1219,0,1,
32,0.81205,1,2,1,1.3507,1,1,0.21722,0,1,
32,0.77039,1,1,2,1.5019,1,2,0.35053,0,1,
32,0.55267,1,2,1,1.2552,1,2,0.64778,0,1,
32,0.3577,1,1,2,1.5099,1,2,0.37582,0,1,
32,0.81003,1,1,2,1.0786,1,2,0.3415,0,1,
32,NaN,1,0,2,1.0559,NaN,1,0.12107,0,1,
32,0.73173,1,2,1,1.635,1,1,0.21827,0,1,
32,0.74233,1,2,1,1.6169,1,2,0.69109,0,1,
32,0.59237,1,2,1,1.0815,1,2,0.69382,0,1,
32,0.49074,1,1,2,1.6095,1,1,0.12385,0,1,
32,0.55189,1,1,2,1.5447,1,2,0.3533,0,1,
32,0.56826,1,2,1,1.8559,1,1,0.23925,0,1,
31,1.0237,1,2,2,1.1465,1,1,0.20526,1,0,
31,0.45994,1,2,2,1.6311,1,2,0.59173,1,0,
31,0.37,1,2,2,1.8593,1,1,0.21547,1,0,
31,0.32796,1,1,1,1.9742,1,1,0.65993,1,0,
31,0.27061,1,1,1,1.5708,1,1,0.64864,1,0,
31,0.3632,1,1,2,1.9969,0,1,0.21555,1,0,
31,0.44852,1,2,2,1.5535,1,2,0.6257,1,0,
31,0.3821,1,2,2,1.5155,1,2,0.61118,1,0,
31,0.33515,1,2,2,1.3307,1,1,0.21303,1,0,
31,0.37769,1,2,2,1.43,1,2,0.61688,1,0,
31,0.43324,1,2,2,1.4918,1,2,0.6184,1,0,
31,0.35585,1,1,1,1.071,1,2,2.0003,1,0,
31,0.31547,1,1,1,1.8877,1,2,1.9295,1,0,
31,0.30042,1,1,1,1.0646,1,2,1.9013,1,0,
31,0.57966,1,1,1,1.4362,1,2,1.9772,1,0,
31,0.35762,1,2,2,1.8266,1,1,0.2137,1,0,
31,0.3256,1,2,2,1.3945,1,2,0.60801,1,0,
31,0.31623,1,2,2,1.6135,1,1,0.19592,1,0,
31,0.46861,1,1,1,1.8186,1,2,1.9466,1,0,
31,0.72551,1,2,1,1.8862,0,1,0.63824,1,0,
31,0.48764,1,1,1,1.9311,1,1,0.64572,1,0,
31,0.43613,1,2,2,1.1908,1,2,0.63862,1,0,
31,0.42296,1,2,2,1.2586,1,1,0.2026,1,0,
31,0.35494,1,1,1,1.8979,1,2,1.9347,1,0,
31,0.36818,1,2,2,1.5934,1,2,0.60478,1,0,
31,0.32898,1,1,2,1.5038,0,1,0.19655,1,0,
31,0.76155,1,2,2,1.6128,1,1,0.19928,1,0,
31,0.88322,1,2,1,1.8194,0,1,0.62275,1,0,
31,0.33376,1,2,2,1.5319,1,2,0.6096,1,0,
31,0.62348,1,2,1,1.2021,0,1,0.63509,1,0,
31,0.45093,1,2,2,1.4539,1,2,0.60041,1,0,
31,0.4163,1,1,1,1.4279,1,1,0.64746,1,0,
31,0.41287,1,2,2,1.9661,1,1,0.19607,1,0,
31,0.37492,1,2,2,1.6201,1,1,0.20474,1,0,
31,0.37091,1,1,1,1.6954,1,2,2.0064,1,0,
31,0.35006,1,2,2,1.7202,1,2,0.59669,1,0,
31,0.35303,1,1,1,1.3469,1,2,2.0246,1,0,
31,0.34925,1,2,2,1.517,1,1,0.19505,1,0,
31,0.31003,1,1,1,1.5567,1,2,1.9355,1,0,
31,0.43785,1,2,2,1.1565,1,1,0.19347,1,0,
31,0.43453,1,1,1,1.5621,1,1,0.63242,1,0,
31,0.46508,1,2,2,1.6948,1,2,0.58028,1,0,
31,0.53372,1,2,2,1.4265,1,1,0.19766,1,0,
31,0.53701,1,2,2,1.8363,1,1,0.1966,1,0,
31,0.49754,1,2,2,1.7314,1,1,0.19946,1,0,
31,0.43752,1,1,1,1.36,1,1,0.6291,1,0,
31,0.42911,1,1,1,1.4542,1,2,1.8794,1,0,
31,0.43952,1,2,2,1.3864,1,1,0.2072,1,0,
31,0.42217,1,1,1,1.7756,1,2,2.0519,1,0,
31,0.47004,1,1,2,1.7343,0,1,0.21549,1,0,
31,0.60126,1,1,1,1.4303,1,2,1.8974,1,0,
31,0.39185,1,2,2,1.6938,1,1,0.20445,1,0,
31,0.56577,1,2,1,1.9452,0,1,0.64383,1,0,
31,0.6565,1,1,1,1.7842,1,2,1.9646,1,0,
31,0.37946,1,2,2,1.7056,1,2,0.59816,1,0,
31,0.46815,1,1,1,1.1093,1,2,1.8643,1,0,
31,0.53597,1,1,1,1.3899,1,1,0.64832,1,0,
31,0.36111,1,2,2,1.5909,1,2,0.59192,1,0,
31,0.47384,1,2,2,1.4594,1,2,0.58194,1,0,
