"trial_RT","trial_blockType","trial_response","trial_limbside","trial_randSOA","trial_correct","trial_int","trial_actualIntensity","trial_crossed_legs","trial_crossed_hand","trial_handpos",
0.49332,1,2,2,1.93,1,1,0.22251,0,0,2,
0.49782,1,2,2,1.5293,1,2,0.64377,0,0,2,
0.34381,1,1,1,1.6265,1,2,0.75858,0,0,2,
0.2881,1,2,2,1.6808,1,1,0.21914,0,0,2,
0.35372,1,1,1,1.9232,1,2,0.73957,0,0,2,
0.36925,1,2,2,1.1528,1,2,0.62166,0,0,2,
0.37066,1,2,2,1.4057,1,1,0.22185,0,0,2,
0.39159,1,2,2,1.3125,1,1,0.22111,0,0,2,
0.4646,1,2,2,1.6939,1,1,0.22707,0,0,2,
0.3638,1,1,1,1.8907,1,1,0.24416,0,0,2,
0.351,1,1,1,1.4907,1,2,0.75155,0,0,2,
0.29913,1,1,1,1.8058,1,2,0.75364,0,0,2,
0.30117,1,1,1,1.3264,1,1,0.23043,0,0,2,
0.34092,1,2,2,1.5499,1,1,0.21155,0,0,2,
0.29098,1,2,2,1.3888,1,2,0.67992,0,0,2,
0.32864,1,1,1,1.8968,1,2,0.68404,0,0,2,
0.34443,1,1,1,1.6761,1,1,0.23682,0,0,2,
0.26275,1,1,1,1.8284,1,2,0.70315,0,0,2,
0.46188,1,1,1,1.1101,1,1,0.2464,0,0,2,
0.3397,1,2,2,1.2792,1,1,0.20941,0,0,2,
0.33135,1,1,1,1.7676,1,1,0.24806,0,0,2,
0.33535,1,1,1,1.2161,1,2,0.74333,0,0,2,
0.38897,1,2,2,1.0341,1,1,0.21999,0,0,2,
0.31533,1,1,1,1.4366,1,1,0.23313,0,0,2,
0.32639,1,2,2,1.9369,1,1,0.20861,0,0,2,
0.36025,1,1,1,1.2621,1,1,0.24334,0,0,2,
0.29467,1,1,1,1.5697,1,1,0.22707,0,0,2,
0.35831,1,2,2,1.3596,1,1,0.2084,0,0,2,
0.41788,1,2,2,1.0268,1,2,0.63008,0,0,2,
0.42492,1,1,1,1.5004,1,2,0.71545,0,0,2,
0.2919,1,1,1,1.827,1,2,0.73395,0,0,2,
0.34897,1,2,2,1.259,1,1,0.22835,0,0,2,
0.3728,1,2,2,1.0459,1,2,0.65741,0,0,2,
0.2994,1,1,1,1.2465,1,1,0.2277,0,0,2,
0.30982,1,1,1,1.6607,1,2,0.70427,0,0,2,
0.3314,1,2,2,1.3294,1,2,0.66833,0,0,2,
0.27898,1,1,1,1.6595,1,1,0.24788,0,0,2,
0.36355,1,1,1,1.013,1,2,0.70227,0,0,2,
0.26631,1,1,1,1.7181,1,1,0.23978,0,0,2,
0.36673,1,2,2,1.3911,1,1,0.22736,0,0,2,
0.35142,1,2,2,1.0335,1,2,0.66477,0,0,2,
0.28585,1,1,1,1.406,1,2,0.72255,0,0,2,
0.31436,1,2,2,1.7163,1,1,0.21495,0,0,2,
0.34395,1,2,2,1.9213,1,1,0.21696,0,0,2,
0.37875,1,1,1,1.984,1,1,0.2481,0,0,2,
0.32312,1,1,1,1.9834,1,1,0.23555,0,0,2,
0.37742,1,2,2,1.8963,1,1,0.21823,0,0,2,
0.39128,1,2,2,1.8657,1,2,0.64759,0,0,2,
0.85015,1,2,2,1.801,1,2,0.67126,0,0,2,
0.4177,1,1,1,1.555,1,2,0.72516,0,0,2,
0.40333,1,2,2,1.4189,1,2,0.66912,0,0,2,
0.4394,1,2,2,1.1271,1,2,0.65685,0,0,2,
0.2731,1,1,1,1.6546,1,2,0.71116,0,0,2,
0.28572,1,2,2,1.864,1,2,0.65582,0,0,2,
0.36744,1,2,2,1.2746,1,2,0.62552,0,0,2,
0.37487,1,2,2,1.8402,1,2,0.65082,0,0,2,
0.4358,1,1,1,1.0708,1,1,0.25315,0,0,2,
0.41723,1,1,1,1.3788,1,2,0.74316,0,0,2,
0.31783,1,2,2,1.2682,1,2,0.67509,0,0,2,
0.3856,1,1,1,1.1529,1,1,0.24729,0,0,2,
0.87315,1,1,1,1.7535,1,1,0.2383,0,1,2,
0.53996,1,1,1,1.836,1,1,0.22879,0,1,2,
0.39269,1,1,1,1.2537,1,2,0.74006,0,1,2,
0.43061,1,2,2,1.5344,1,1,0.20769,0,1,2,
0.49354,1,1,1,1.4352,1,1,0.23791,0,1,2,
0.4403,1,2,2,1.1577,1,2,0.62341,0,1,2,
0.38234,1,2,2,1.6005,1,2,0.69455,0,1,2,
0.37724,1,1,1,1.9375,1,1,0.24046,0,1,2,
0.41968,1,2,2,1.1078,1,2,0.68928,0,1,2,
0.39057,1,1,1,1.9,1,1,0.23664,0,1,2,
0.38957,1,2,2,1.5505,1,1,0.22909,0,1,2,
0.53462,1,2,2,1.4274,1,1,0.21308,0,1,2,
0.44685,1,1,1,1.1524,1,1,0.25141,0,1,2,
0.63504,1,2,2,1.2475,1,2,0.68808,0,1,2,
0.43336,1,2,2,1.4474,1,1,0.21663,0,1,2,
0.46812,1,2,2,1.5328,1,2,0.66706,0,1,2,
0.41568,1,2,2,1.3547,1,2,0.66266,0,1,2,
0.66568,1,2,2,1.7731,1,2,0.68808,0,1,2,
0.3422,1,2,2,1.8817,1,2,0.63624,0,1,2,
0.41223,1,1,1,1.7341,1,2,0.67958,0,1,2,
0.47399,1,2,2,1.4064,1,2,0.68698,0,1,2,
0.47198,1,2,2,1.6042,1,1,0.21259,0,1,2,
0.45443,1,2,2,1.6411,1,2,0.63849,0,1,2,
0.56676,1,2,2,1.1275,1,1,0.22276,0,1,2,
0.47102,1,1,1,1.4962,1,1,0.23451,0,1,2,
0.4678,1,1,1,1.3105,1,2,0.74701,0,1,2,
0.45526,1,2,2,1.5786,1,1,0.22907,0,1,2,
0.42193,1,1,1,1.9436,1,2,0.75738,0,1,2,
0.6017,1,1,1,1.4269,1,1,0.23685,0,1,2,
0.49133,1,2,2,1.0331,1,2,0.68073,0,1,2,
0.38673,1,1,1,1.9294,1,1,0.23056,0,1,2,
0.48469,1,1,1,1.925,1,2,0.72997,0,1,2,
0.088655,1,1,2,1.3583,0,1,0.22425,0,1,2,
0.10532,1,1,1,1.26,1,2,0.68603,0,1,2,
0.46088,1,2,2,1.7869,1,2,0.65989,0,1,2,
0.53898,1,2,2,1.5116,1,2,0.68761,0,1,2,
0.55085,1,2,2,1.5625,1,1,0.21329,0,1,2,
0.48107,1,1,1,1.6848,1,2,0.69789,0,1,2,
0.62772,1,1,1,1.0924,1,2,0.74822,0,1,2,
0.46388,1,2,2,1.8726,1,1,0.21906,0,1,2,
0.46791,1,2,2,1.9429,1,1,0.21058,0,1,2,
0.48618,1,2,2,1.0966,1,1,0.21249,0,1,2,
0.6222,1,1,1,1.8459,1,2,0.73273,0,1,2,
0.38649,1,1,1,1.9094,1,1,0.24159,0,1,2,
0.55229,1,1,1,1.0113,1,1,0.23416,0,1,2,
1.0827,1,1,1,1.5237,1,2,0.72973,0,1,2,
0.59218,1,1,1,1.6503,1,2,0.73764,0,1,2,
0.44786,1,1,1,1.3851,1,1,0.23386,0,1,2,
0.4199,1,1,1,1.6493,1,2,0.7123,0,1,2,
0.42541,1,1,1,1.7629,1,1,0.23607,0,1,2,
0.38993,1,1,1,1.5757,1,1,0.24774,0,1,2,
0.36185,1,1,1,1.6319,1,2,0.68996,0,1,2,
0.53755,1,1,1,1.2782,1,1,0.25121,0,1,2,
0.35139,1,2,2,1.8398,1,1,0.21393,0,1,2,
0.37208,1,2,2,1.4268,1,1,0.21916,0,1,2,
0.41927,1,2,2,1.6316,1,2,0.67935,0,1,2,
0.36959,1,1,1,1.8335,1,2,0.73435,0,1,2,
0.36227,1,1,1,1.2702,1,2,0.6911,0,1,2,
0.5134,1,2,2,1.4008,1,1,0.22419,0,1,2,
0.38655,1,2,2,1.5543,1,2,0.63003,0,1,2,
0.77546,1,2,1,1.5548,1,2,0.70447,1,0,2,
0.70698,1,1,2,1.8793,1,2,0.67933,1,0,2,
0.52939,1,2,1,1.5579,1,2,0.75974,1,0,2,
0.48945,1,1,2,1.7523,1,2,0.6641,1,0,2,
0.5725,1,1,2,1.8949,1,1,0.2263,1,0,2,
0.61392,1,1,2,1.8418,1,2,0.67499,1,0,2,
0.66036,1,1,2,1.1309,1,1,0.22302,1,0,2,
0.53267,1,1,2,1.1892,1,1,0.22337,1,0,2,
0.60048,1,1,2,1.1536,1,1,0.23053,1,0,2,
0.57683,1,1,2,1.0289,1,1,0.22006,1,0,2,
0.61531,1,1,2,1.0091,1,2,0.64988,1,0,2,
0.4143,1,1,2,1.5965,1,1,0.22352,1,0,2,
0.43897,1,1,2,1.609,1,2,0.65304,1,0,2,
0.51541,1,2,1,1.9189,1,2,0.68975,1,0,2,
0.67293,1,1,2,1.7336,1,1,0.21765,1,0,2,
0.40101,1,2,1,1.3011,1,1,0.24116,1,0,2,
0.43387,1,2,1,1.4956,1,1,0.23696,1,0,2,
0.52137,1,2,1,1.2582,1,1,0.23705,1,0,2,
0.53461,1,1,2,1.7329,1,1,0.22561,1,0,2,
1.2231,1,2,1,1.1168,1,1,0.24046,1,0,2,
0.53541,1,1,2,1.746,1,1,0.21893,1,0,2,
0.4419,1,2,1,1.8098,1,2,0.68625,1,0,2,
0.53218,1,2,1,1.7452,1,2,0.69918,1,0,2,
0.55619,1,1,2,1.3371,1,1,0.21786,1,0,2,
0.45192,1,2,1,1.5843,1,2,0.73105,1,0,2,
0.51481,1,1,2,1.469,1,2,0.67357,1,0,2,
0.43134,1,2,1,1.0873,1,2,0.76151,1,0,2,
0.3961,1,2,1,1.8287,1,1,0.25208,1,0,2,
0.45,1,2,1,1.6859,1,2,0.68653,1,0,2,
0.358,1,1,2,1.2673,1,1,0.23092,1,0,2,
0.45083,1,1,2,1.9695,1,2,0.63249,1,0,2,
0.4804,1,1,2,1.1838,1,1,0.23137,1,0,2,
0.60114,1,2,1,1.2999,1,2,0.72761,1,0,2,
0.49293,1,1,2,1.4112,1,2,0.63815,1,0,2,
0.50896,1,1,2,1.2365,1,2,0.62579,1,0,2,
0.66195,1,1,2,1.1951,1,2,0.64256,1,0,2,
0.69748,1,2,1,1.7054,1,1,0.24866,1,0,2,
0.4966,1,2,1,1.1805,1,2,0.6853,1,0,2,
0.41977,1,2,1,1.5223,1,1,0.23586,1,0,2,
0.4962,1,2,1,1.2962,1,2,0.68968,1,0,2,
0.41396,1,2,1,1.4628,1,2,0.69176,1,0,2,
0.43987,1,2,1,1.9252,1,1,0.22805,1,0,2,
0.45415,1,2,1,1.2159,1,1,0.24548,1,0,2,
0.45433,1,2,1,1.001,1,1,0.22869,1,0,2,
0.42299,1,1,2,1.9066,1,2,0.66643,1,0,2,
0.35543,1,1,2,1.68,1,2,0.63329,1,0,2,
0.36921,1,1,2,1.515,1,1,0.22303,1,0,2,
0.63674,1,2,1,1.5221,1,2,0.71942,1,0,2,
0.42592,1,2,1,1.1029,1,1,0.23397,1,0,2,
0.38559,1,1,2,1.9969,1,1,0.22768,1,0,2,
0.60697,1,2,1,1.359,1,1,0.2488,1,0,2,
0.46457,1,2,1,1.6252,1,2,0.75676,1,0,2,
0.7709,1,2,1,1.3934,1,1,0.22643,1,0,2,
0.42063,1,1,2,1.0077,1,2,0.66824,1,0,2,
0.37025,1,1,2,1.5453,1,2,0.62127,1,0,2,
0.37661,1,2,1,1.5091,1,2,0.68765,1,0,2,
0.40644,1,2,1,1.2468,1,1,0.22923,1,0,2,
0.69839,1,1,2,1.0454,1,1,0.21585,1,0,2,
0.29387,1,1,2,1.8417,1,2,0.63811,1,0,2,
0.66647,1,2,1,1.0482,1,1,0.23563,1,0,2,
0.74303,1,1,2,1.3242,1,1,0.21068,1,1,2,
0.56633,1,2,2,1.669,0,1,0.2083,1,1,2,
0.86178,1,2,1,1.2963,1,2,0.70637,1,1,2,
0.53364,1,2,1,1.93,1,2,0.74629,1,1,2,
0.44159,1,2,1,1.282,1,2,0.70945,1,1,2,
0.55614,1,2,1,1.1689,1,2,0.75976,1,1,2,
0.25081,1,1,1,1.7452,0,2,0.7283,1,1,2,
0.71331,1,2,1,1.4771,1,1,0.23542,1,1,2,
0.70076,1,1,2,1.6534,1,1,0.23024,1,1,2,
0.465,1,2,1,1.9666,1,2,0.7533,1,1,2,
0.44986,1,1,2,1.313,1,1,0.22821,1,1,2,
0.47255,1,1,2,1.0764,1,1,0.21312,1,1,2,
0.47495,1,1,2,1.7914,1,1,0.21383,1,1,2,
0.58677,1,2,1,1.3654,1,2,0.7431,1,1,2,
0.43833,1,1,2,1.5851,1,2,0.67295,1,1,2,
0.5514,1,2,1,1.1833,1,2,0.71891,1,1,2,
0.76304,1,2,1,1.0769,1,1,0.25311,1,1,2,
0.59791,1,1,2,1.1537,1,1,0.21857,1,1,2,
0.5714,1,2,1,1.8269,1,2,0.76172,1,1,2,
0.79233,1,1,2,1.301,1,1,0.21894,1,1,2,
0.76331,1,1,2,1.3839,1,2,0.65779,1,1,2,
0.70202,1,1,2,1.6507,1,1,0.22606,1,1,2,
0.1064,1,1,1,1.8174,0,2,0.71032,1,1,2,
0.86251,1,2,1,1.7663,1,2,0.71567,1,1,2,
0.37757,1,1,2,1.3742,1,1,0.2101,1,1,2,
0.82191,1,1,2,1.1899,1,1,0.2258,1,1,2,
0.51528,1,1,2,1.6465,1,2,0.66248,1,1,2,
0.54484,1,2,1,1.0036,1,2,0.73195,1,1,2,
0.6109,1,1,2,1.2829,1,2,0.68048,1,1,2,
0.77451,1,1,2,1.6386,1,2,0.6367,1,1,2,
0.4706,1,2,1,1.5921,1,1,0.24993,1,1,2,
0.42152,1,1,2,1.3253,1,2,0.68889,1,1,2,
0.80344,1,1,2,1.989,1,2,0.64197,1,1,2,
0.46655,1,1,2,1.1232,1,2,0.67485,1,1,2,
0.69225,1,1,2,1.7359,1,2,0.64548,1,1,2,
0.39817,1,1,2,1.1566,1,2,0.64054,1,1,2,
0.64672,1,2,1,1.4346,1,1,0.23091,1,1,2,
0.31628,1,1,2,1.8322,1,2,0.67006,1,1,2,
0.83837,1,2,1,1.3599,1,1,0.24083,1,1,2,
1.6184,1,1,2,1.0762,1,2,0.68292,1,1,2,
0.67981,1,2,1,1.5569,1,2,0.70051,1,1,2,
0.44035,1,1,2,1.2739,1,2,0.63346,1,1,2,
0.8268,1,1,2,1.1321,1,2,0.65234,1,1,2,
0.49266,1,2,1,1.6997,1,1,0.23917,1,1,2,
0.62959,1,2,1,1.4859,1,1,0.24785,1,1,2,
0.57624,1,2,1,1.1827,1,1,0.22986,1,1,2,
0.70356,1,1,2,1.1012,1,2,0.62442,1,1,2,
0.8271,1,2,1,1.2016,1,1,0.24339,1,1,2,
0.45839,1,1,2,1.1347,1,1,0.20761,1,1,2,
0.63549,1,2,1,1.3238,1,1,0.23,1,1,2,
0.62323,1,2,1,1.9505,1,1,0.24528,1,1,2,
0.50388,1,1,2,1.5321,1,1,0.21957,1,1,2,
0.58648,1,2,1,1.2477,1,2,0.72306,1,1,2,
0.95137,1,2,1,1.4373,1,2,0.74554,1,1,2,
0.53266,1,1,2,1.6691,1,1,0.22671,1,1,2,
0.6917,1,2,1,1.5477,1,1,0.23989,1,1,2,
0.48639,1,2,1,1.6091,1,1,0.23375,1,1,2,
0.50048,1,2,1,1.8631,1,1,0.22957,1,1,2,
0.6185,1,2,1,1.3807,1,1,0.25076,1,1,2,
0.37496,1,1,2,1.749,1,1,0.23137,1,1,2,
0.82666,1,2,2,1.7835,1,1,0.21338,0,0,3,
NaN,1,0,2,1.2479,NaN,1,0.20786,0,0,3,
0.63003,1,2,2,1.5544,1,2,0.6423,0,0,3,
0.50847,1,2,2,1.2296,1,2,0.66181,0,0,3,
0.47428,1,2,2,1.0069,1,2,0.69401,0,0,3,
0.46566,1,1,1,1.7666,1,2,0.73537,0,0,3,
0.3489,1,1,1,1.0218,1,2,0.7378,0,0,3,
0.37216,1,2,2,1.3931,1,2,0.66201,0,0,3,
0.4124,1,2,2,1.2525,1,2,0.66005,0,0,3,
0.38583,1,2,2,1.2042,1,2,0.68659,0,0,3,
0.36077,1,1,1,1.6623,1,1,0.23691,0,0,3,
0.33469,1,1,1,1.9147,1,1,0.23869,0,0,3,
0.52652,1,2,2,1.0069,1,1,0.21194,0,0,3,
0.34311,1,1,1,1.7464,1,1,0.24705,0,0,3,
0.47348,1,2,2,1.7997,1,1,0.22036,0,0,3,
0.43679,1,2,2,1.9078,1,1,0.21561,0,0,3,
0.3165,1,1,1,1.9746,1,2,0.73637,0,0,3,
0.47382,1,2,2,1.1199,1,1,0.20953,0,0,3,
0.43456,1,1,1,1.519,1,2,0.67979,0,0,3,
0.39425,1,1,1,1.822,1,2,0.72763,0,0,3,
0.48884,1,2,2,1.637,1,1,0.22323,0,0,3,
0.41497,1,1,1,1.9539,1,1,0.24206,0,0,3,
0.39794,1,2,2,1.9469,1,2,0.6893,0,0,3,
0.45225,1,2,2,1.9666,1,2,0.6679,0,0,3,
0.55488,1,1,1,1.0673,1,2,0.72165,0,0,3,
0.59685,1,2,2,1.4375,1,2,0.63958,0,0,3,
0.71305,1,2,2,1.3208,1,1,0.20814,0,0,3,
0.45222,1,1,1,1.1341,1,1,0.24633,0,0,3,
0.73364,1,2,2,1.1346,1,1,0.21087,0,0,3,
0.30719,1,1,1,1.8059,1,2,0.70156,0,0,3,
0.39795,1,2,2,1.5248,1,2,0.63956,0,0,3,
0.38003,1,1,1,1.9443,1,2,0.72344,0,0,3,
0.3925,1,1,1,1.9883,1,2,0.72295,0,0,3,
0.40486,1,1,1,1.4099,1,1,0.24793,0,0,3,
0.52448,1,2,2,1.3712,1,1,0.2287,0,0,3,
0.49687,1,2,2,1.2269,1,2,0.67966,0,0,3,
0.39594,1,1,1,1.446,1,1,0.25316,0,0,3,
0.44451,1,2,2,1.2662,1,1,0.21126,0,0,3,
0.44162,1,1,1,1.4591,1,2,0.7561,0,0,3,
0.43416,1,1,1,1.4329,1,2,0.68282,0,0,3,
0.33976,1,1,1,1.2596,1,2,0.69836,0,0,3,
0.38833,1,1,1,1.1337,1,1,0.22666,0,0,3,
0.53204,1,2,2,1.4192,1,2,0.67064,0,0,3,
0.65125,1,2,2,1.5069,1,2,0.68889,0,0,3,
0.86979,1,1,1,1.3243,1,1,0.24185,0,0,3,
0.45971,1,2,2,1.6847,1,2,0.63195,0,0,3,
0.47339,1,1,1,1.4431,1,2,0.71972,0,0,3,
0.59794,1,2,2,1.4357,1,1,0.22089,0,0,3,
0.55333,1,1,1,1.793,1,2,0.69416,0,0,3,
0.33546,1,2,2,1.8156,1,1,0.21478,0,0,3,
0.50615,1,1,1,1.7521,1,1,0.24588,0,0,3,
0.33865,1,1,1,1.7893,1,1,0.24131,0,0,3,
0.48156,1,2,2,1.5013,1,1,0.21033,0,0,3,
0.56211,1,2,2,1.5552,1,1,0.21618,0,0,3,
0.32998,1,1,1,1.6307,1,1,0.237,0,0,3,
0.53848,1,2,2,1.098,1,2,0.66336,0,0,3,
0.41885,1,1,1,1.2457,1,1,0.22693,0,0,3,
0.35259,1,1,1,1.6157,1,1,0.24199,0,0,3,
0.39015,1,1,1,1.305,1,1,0.25208,0,0,3,
0.31508,1,1,1,1.767,1,2,0.68769,0,0,3,
0.67161,1,1,1,1.8367,1,1,0.24858,0,1,3,
0.70732,1,1,1,1.8593,1,2,0.75595,0,1,3,
0.44319,1,1,1,1.5234,1,1,0.24466,0,1,3,
0.44103,1,1,1,1.4774,1,2,0.70903,0,1,3,
NaN,1,0,2,1.8899,NaN,2,0.65042,0,1,3,
0.45556,1,2,2,1.0651,1,1,0.21764,0,1,3,
1.054,1,2,2,1.5095,1,1,0.22373,0,1,3,
0.42415,1,1,1,1.6208,1,2,0.71664,0,1,3,
0.39873,1,1,1,1.7336,1,2,0.75807,0,1,3,
0.40859,1,1,1,1.23,1,1,0.23586,0,1,3,
0.35293,1,1,1,1.0219,1,2,0.70631,0,1,3,
0.47235,1,2,2,1.139,1,2,0.68818,0,1,3,
0.42923,1,2,2,1.7695,1,1,0.22032,0,1,3,
0.40152,1,2,2,1.9698,1,2,0.67667,0,1,3,
0.5317,1,2,2,1.3868,1,1,0.20991,0,1,3,
0.4314,1,2,2,1.9934,1,2,0.65399,0,1,3,
0.42109,1,1,1,1.3264,1,2,0.68515,0,1,3,
0.41957,1,1,1,1.1372,1,2,0.73319,0,1,3,
0.53162,1,2,2,1.3848,1,1,0.22437,0,1,3,
0.66673,1,1,1,1.5626,1,2,0.75508,0,1,3,
0.93758,1,1,1,1.6338,1,1,0.2443,0,1,3,
0.51072,1,2,2,1.5416,1,1,0.22402,0,1,3,
0.4412,1,2,2,1.315,1,1,0.22828,0,1,3,
0.57505,1,1,1,1.1593,1,1,0.23896,0,1,3,
0.58867,1,1,1,1.1526,1,1,0.2387,0,1,3,
0.38271,1,2,2,1.137,1,1,0.22704,0,1,3,
0.56974,1,2,2,1.7098,1,2,0.68257,0,1,3,
0.60445,1,2,2,1.4649,1,1,0.2115,0,1,3,
0.69069,1,1,1,1.1133,1,1,0.2271,0,1,3,
0.53552,1,1,1,1.7009,1,1,0.22791,0,1,3,
0.58158,1,1,1,1.18,1,2,0.69055,0,1,3,
0.47414,1,2,2,1.8037,1,2,0.63312,0,1,3,
0.84071,1,2,2,1.514,1,1,0.22237,0,1,3,
0.57258,1,1,1,1.5484,1,2,0.68159,0,1,3,
0.7934,1,2,2,1.2078,1,2,0.65543,0,1,3,
0.5115,1,2,2,1.7846,1,1,0.22372,0,1,3,
0.47352,1,1,1,1.5265,1,2,0.68831,0,1,3,
0.057111,1,1,1,1.571,1,1,0.23266,0,1,3,
0.80581,1,1,1,1.422,1,2,0.70227,0,1,3,
0.50215,1,2,2,1.7212,1,2,0.63321,0,1,3,
0.50439,1,2,2,1.0731,1,1,0.21477,0,1,3,
0.63991,1,2,2,1.5949,1,1,0.22691,0,1,3,
0.48507,1,1,1,1.862,1,1,0.23437,0,1,3,
0.5803,1,2,2,1.4488,1,2,0.67872,0,1,3,
0.50967,1,2,2,1.6526,1,2,0.66153,0,1,3,
0.57437,1,1,1,1.3035,1,1,0.24136,0,1,3,
0.43329,1,1,1,1.6074,1,2,0.73889,0,1,3,
0.74995,1,2,2,1.2789,1,2,0.67857,0,1,3,
0.75517,1,2,2,1.7996,1,1,0.22953,0,1,3,
0.46802,1,2,2,1.7962,1,2,0.6307,0,1,3,
0.58306,1,1,1,1.9541,1,1,0.2481,0,1,3,
0.41524,1,1,1,1.4443,1,2,0.69425,0,1,3,
0.47154,1,1,1,1.4569,1,1,0.22718,0,1,3,
0.33881,1,2,2,1.5998,1,2,0.62991,0,1,3,
0.45758,1,1,1,1.8426,1,2,0.68982,0,1,3,
0.46085,1,2,2,1.0312,1,2,0.62998,0,1,3,
0.5624,1,1,1,1.1873,1,1,0.25217,0,1,3,
0.54336,1,2,2,1.9436,1,2,0.64058,0,1,3,
0.59611,1,1,1,1.9479,1,1,0.25238,0,1,3,
0.61498,1,2,2,1.453,1,1,0.22269,0,1,3,
0.69038,1,1,2,1.0746,1,2,0.63904,1,0,3,
0.57196,1,2,1,1.5911,1,2,0.69511,1,0,3,
0.4794,1,1,2,1.446,1,2,0.62569,1,0,3,
0.64706,1,1,2,1.9266,1,2,0.66147,1,0,3,
0.49573,1,1,2,1.0949,1,1,0.21676,1,0,3,
0.44677,1,2,1,1.3754,1,2,0.74055,1,0,3,
0.48548,1,1,2,1.546,1,1,0.21885,1,0,3,
0.56548,1,1,1,1.1117,0,1,0.23668,1,0,3,
0.44399,1,2,1,1.9045,1,2,0.6841,1,0,3,
0.45848,1,1,2,1.6333,1,1,0.21207,1,0,3,
0.63624,1,1,2,1.9054,1,2,0.66085,1,0,3,
0.47972,1,2,1,1.6306,1,1,0.23739,1,0,3,
0.61031,1,1,2,1.0142,1,2,0.68859,1,0,3,
0.77672,1,1,2,1.3165,1,1,0.20826,1,0,3,
0.5652,1,2,1,1.1119,1,2,0.71486,1,0,3,
0.62335,1,1,2,1.6295,1,2,0.66039,1,0,3,
0.85788,1,2,1,1.0607,1,2,0.68984,1,0,3,
0.49983,1,2,1,1.674,1,2,0.72293,1,0,3,
0.65879,1,1,2,1.4774,1,1,0.22838,1,0,3,
0.50772,1,2,1,1.3055,1,2,0.69494,1,0,3,
0.5739,1,2,1,1.5163,1,1,0.23052,1,0,3,
0.53551,1,2,1,1.707,1,2,0.68409,1,0,3,
0.5615,1,2,1,1.8136,1,2,0.73299,1,0,3,
0.53069,1,2,1,1.3158,1,2,0.68073,1,0,3,
0.51009,1,1,2,1.3113,1,2,0.6419,1,0,3,
0.53153,1,1,2,1.345,1,1,0.23146,1,0,3,
0.46962,1,1,2,1.6663,1,1,0.22596,1,0,3,
0.49822,1,2,1,1.8611,1,2,0.6986,1,0,3,
0.51151,1,1,2,1.7618,1,2,0.67146,1,0,3,
0.40279,1,2,1,1.8758,1,2,0.69014,1,0,3,
0.43234,1,1,2,1.8712,1,2,0.66743,1,0,3,
0.73313,1,1,2,1.1728,1,1,0.22837,1,0,3,
0.50701,1,2,1,1.8502,1,1,0.25114,1,0,3,
0.38981,1,2,1,1.9596,1,1,0.23569,1,0,3,
0.61071,1,1,2,1.7702,1,1,0.21883,1,0,3,
0.46812,1,2,1,1.875,1,1,0.24485,1,0,3,
0.51473,1,2,1,1.0674,1,1,0.24555,1,0,3,
0.36749,1,2,1,1.6468,1,1,0.23876,1,0,3,
0.57927,1,1,2,1.3241,1,1,0.21578,1,0,3,
0.48687,1,1,2,1.6403,1,1,0.2137,1,0,3,
0.44326,1,1,2,1.8798,1,2,0.62621,1,0,3,
0.55201,1,2,1,1.3736,1,1,0.23832,1,0,3,
1.0331,1,2,1,1.7667,1,1,0.23079,1,0,3,
0.54898,1,2,1,1.1681,1,1,0.23706,1,0,3,
0.52154,1,1,2,1.5197,1,2,0.69015,1,0,3,
0.3482,1,1,2,1.6275,1,2,0.65838,1,0,3,
0.48104,1,2,1,1.7139,1,1,0.25156,1,0,3,
0.46647,1,2,1,1.3064,1,1,0.22884,1,0,3,
0.89757,1,1,2,1.2637,1,1,0.23198,1,0,3,
0.50978,1,1,2,1.916,1,1,0.20922,1,0,3,
0.50799,1,2,1,1.615,1,2,0.70421,1,0,3,
0.50547,1,1,2,1.0932,1,2,0.67949,1,0,3,
0.37013,1,2,1,1.6277,1,1,0.24269,1,0,3,
0.49446,1,1,2,1.192,1,2,0.65495,1,0,3,
0.49645,1,1,2,1.777,1,2,0.64242,1,0,3,
0.40525,1,1,2,1.8645,1,1,0.21011,1,0,3,
0.44323,1,2,1,1.3336,1,2,0.70274,1,0,3,
0.46085,1,2,1,1.1354,1,1,0.23081,1,0,3,
0.41708,1,2,1,1.7655,1,2,0.70453,1,0,3,
0.90216,1,1,2,1.3186,1,1,0.20955,1,0,3,
0.79599,1,1,2,1.9982,1,1,0.21369,1,1,3,
1.0312,1,2,1,1.1319,1,1,0.25207,1,1,3,
0.54166,1,1,2,1.9547,1,2,0.64997,1,1,3,
0.76509,1,1,2,1.1239,1,2,0.64846,1,1,3,
0.80119,1,2,1,1.1862,1,1,0.24242,1,1,3,
0.47968,1,1,2,1.6465,1,2,0.62566,1,1,3,
0.6342,1,1,2,1.1282,1,2,0.63559,1,1,3,
0.42198,1,1,2,1.0813,1,1,0.22489,1,1,3,
0.64009,1,1,2,1.6592,1,2,0.66324,1,1,3,
0.81795,1,1,2,1.0274,1,2,0.63522,1,1,3,
0.77089,1,1,2,1.9852,1,1,0.22802,1,1,3,
0.62724,1,1,1,1.5393,0,1,0.23775,1,1,3,
0.1741,1,1,1,1.3738,0,2,0.72324,1,1,3,
0.5307,1,2,1,1.7067,1,2,0.72185,1,1,3,
0.49267,1,1,2,1.9474,1,1,0.21137,1,1,3,
0.50311,1,2,2,1.3823,0,2,0.62661,1,1,3,
0.49568,1,2,1,1.6929,1,2,0.71656,1,1,3,
0.636,1,2,1,1.6021,1,2,0.68167,1,1,3,
0.49847,1,1,2,1.7753,1,2,0.65262,1,1,3,
0.86924,1,2,1,1.5918,1,2,0.72434,1,1,3,
0.6536,1,2,1,1.3762,1,1,0.24371,1,1,3,
0.97115,1,1,2,1.8506,1,2,0.62319,1,1,3,
1.3359,1,1,2,1.2257,1,1,0.22454,1,1,3,
0.52395,1,2,1,1.797,1,1,0.23088,1,1,3,
0.44504,1,2,1,1.9969,1,1,0.24243,1,1,3,
1.0774,1,1,2,1.2813,1,1,0.22192,1,1,3,
0.41762,1,2,1,1.7104,1,2,0.74245,1,1,3,
0.55431,1,2,1,1.6646,1,1,0.2279,1,1,3,
0.61743,1,2,1,1.4148,1,2,0.74952,1,1,3,
0.40628,1,2,1,1.4983,1,1,0.23667,1,1,3,
0.45674,1,1,2,1.9491,1,1,0.21666,1,1,3,
0.80285,1,1,2,1.9532,1,1,0.21481,1,1,3,
0.099328,1,1,1,1.7329,0,1,0.24138,1,1,3,
0.71849,1,1,2,1.3847,1,2,0.64222,1,1,3,
0.94573,1,1,2,1.0401,1,1,0.21582,1,1,3,
0.89115,1,1,2,1.5829,1,2,0.6462,1,1,3,
0.45017,1,2,1,1.5647,1,2,0.7304,1,1,3,
0.51639,1,2,1,1.3552,1,2,0.73328,1,1,3,
0.3961,1,1,2,1.8802,1,1,0.23195,1,1,3,
0.40222,1,2,1,1.6245,1,1,0.25243,1,1,3,
0.54273,1,2,1,1.624,1,2,0.70724,1,1,3,
0.79341,1,1,2,1.2957,1,1,0.21156,1,1,3,
0.5068,1,1,2,1.0747,1,2,0.69007,1,1,3,
0.44817,1,2,1,1.2937,1,2,0.70223,1,1,3,
0.58789,1,1,2,1.2347,1,1,0.22046,1,1,3,
0.49822,1,1,2,1.3459,1,1,0.23002,1,1,3,
0.37936,1,2,1,1.8485,1,2,0.68636,1,1,3,
0.93114,1,2,1,1.1604,1,1,0.23324,1,1,3,
0.50692,1,2,1,1.1579,1,1,0.23784,1,1,3,
0.52863,1,1,2,1.5087,1,2,0.66343,1,1,3,
0.49228,1,2,1,1.6033,1,2,0.7534,1,1,3,
0.38709,1,1,2,1.1614,1,1,0.21218,1,1,3,
0.39957,1,1,2,1.6355,1,2,0.69385,1,1,3,
0.80157,1,2,1,1.8439,1,1,0.23803,1,1,3,
0.47961,1,2,1,1.7823,1,2,0.74351,1,1,3,
0.48124,1,2,1,1.2646,1,1,0.24054,1,1,3,
0.67524,1,2,1,1.3147,1,1,0.23523,1,1,3,
0.4641,1,1,2,1.1832,1,2,0.65237,1,1,3,
0.42176,1,1,2,1.4475,1,1,0.22474,1,1,3,
0.094019,1,1,1,1.3267,0,2,0.75485,1,1,3,

