"subjIndx","trial_RT","trial_blockType","trial_response","trial_limbside","trial_randSOA","trial_correct","trial_int","trial_actualIntensity","trial_crossed_legs","trial_crossed_hand",
1,0.38931,1,1,1,1.6887,1,2,0.26874,0,0,
1,0.33653,1,1,1,1.3209,1,2,0.26302,0,0,
1,0.36839,1,1,1,1.5316,1,1,0.086302,0,0,
1,0.23466,1,2,1,1.8732,0,1,0.095222,0,0,
1,0.3596,1,1,1,1.0545,1,2,0.27501,0,0,
1,0.47606,1,2,2,1.5004,1,2,0.11645,0,0,
1,0.29863,1,1,1,1.4328,1,2,0.27698,0,0,
1,0.62729,1,1,1,1.9043,1,2,0.28107,0,0,
1,0.38095,1,2,2,1.6302,1,2,0.11586,0,0,
1,0.12079,1,2,1,1.983,0,2,0.27787,0,0,
1,0.44006,1,2,2,1.5852,1,2,0.11415,0,0,
1,0.3219,1,1,1,1.8406,1,1,0.095504,0,0,
1,0.29904,1,1,1,1.4688,1,2,0.27848,0,0,
1,1.0205,1,2,2,1.5452,1,1,0.037888,0,0,
1,0.29245,1,1,1,1.1791,1,1,0.089996,0,0,
1,0.40181,1,2,2,1.6345,1,2,0.11993,0,0,
1,0.29592,1,2,2,1.963,1,2,0.1241,0,0,
1,0.31954,1,1,1,1.534,1,1,0.090898,0,0,
1,0.30832,1,1,1,1.4796,1,2,0.27576,0,0,
1,0.34563,1,1,1,1.7937,1,1,0.092497,0,0,
1,0.42924,1,1,1,1.0927,1,1,0.095114,0,0,
1,0.13646,1,2,1,1.8808,0,1,0.087042,0,0,
1,0.40463,1,1,1,1.0039,1,1,0.089613,0,0,
1,0.47798,1,2,2,1.5115,1,1,0.038528,0,0,
1,0.11468,1,2,1,1.6785,0,1,0.092636,0,0,
1,1.2864,1,2,2,1.5657,1,1,0.04118,0,0,
1,0.4052,1,2,2,1.4785,1,2,0.11798,0,0,
1,0.38137,1,2,2,1.3205,1,2,0.12234,0,0,
1,0.30568,1,2,2,1.6016,1,2,0.11577,0,0,
1,0.31908,1,1,1,1.9132,1,2,0.27334,0,0,
1,0.33921,1,1,1,1.6825,1,1,0.089439,0,0,
1,0.29565,1,2,2,1.9467,1,2,0.12363,0,0,
1,0.41894,1,2,2,1.0991,1,2,0.12053,0,0,
1,NaN,1,0,2,1.511,NaN,1,0.040886,0,0,
1,0.35356,1,2,2,1.1101,1,2,0.11292,0,0,
1,0.28292,1,1,1,1.5453,1,1,0.088318,0,0,
1,0.36457,1,2,2,1.6888,1,2,0.1218,0,0,
1,0.31952,1,1,1,1.1474,1,2,0.26303,0,0,
1,0.26132,1,1,1,1.7776,1,2,0.25758,0,0,
1,0.27949,1,1,1,1.3991,1,2,0.2698,0,0,
1,0.28472,1,1,1,1.8983,1,2,0.28579,0,0,
1,1.2901,1,2,2,1.307,1,1,0.038305,0,0,
1,0.35832,1,2,2,1.0611,1,2,0.11906,0,0,
1,0.36005,1,2,2,1.2195,1,2,0.11621,0,0,
1,0.392,1,2,2,1.0828,1,2,0.11185,0,0,
1,0.34946,1,1,1,1.9504,1,1,0.090596,0,0,
1,1.2651,1,2,2,1.0164,1,1,0.040879,0,0,
1,0.25245,1,1,1,1.1147,1,2,0.26434,0,0,
1,1.4463,1,2,2,1.0124,1,1,0.037364,0,0,
1,0.29265,1,1,1,1.2162,1,2,0.26396,0,0,
1,1.3458,1,2,2,1.0114,1,1,0.040104,0,0,
1,1.1198,1,2,2,1.6424,1,1,0.038603,0,0,
1,0.41306,1,1,1,1.517,1,1,0.09227,0,0,
1,0.35963,1,2,2,1.2455,1,2,0.11167,0,0,
1,0.6476,1,2,2,1.1937,1,1,0.04037,0,0,
1,0.42572,1,2,2,1.0909,1,2,0.11664,0,0,
1,0.3984,1,1,2,1.3684,0,1,0.03731,0,0,
1,0.33413,1,1,1,1.0078,1,1,0.089616,0,0,
1,0.051482,1,2,1,1.6027,0,2,0.27863,0,0,
1,0.29814,1,1,1,1.4789,1,2,0.28528,0,0,
1,0.3072,1,2,2,1.3081,1,2,0.12488,0,0,
1,0.78628,1,1,1,1.7444,1,1,0.095776,0,0,
1,0.12438,1,2,1,1.8393,0,1,0.09482,0,0,
1,0.26769,1,1,1,1.2624,1,2,0.28346,0,0,
1,0.26191,1,1,1,1.5142,1,2,0.28136,0,0,
1,0.30776,1,2,2,1.4468,1,2,0.11886,0,0,
1,0.29427,1,2,2,1.3412,1,2,0.11701,0,0,
1,0.36504,1,2,2,1.8391,1,2,0.11314,0,0,
1,0.096985,1,2,2,1.9825,1,1,0.040076,0,0,
1,0.31393,1,1,1,1.6265,1,1,0.094468,0,0,
1,0.30372,1,1,1,1.1813,1,2,0.26481,0,0,
1,0.8763,1,2,2,1.123,1,1,0.040941,0,0,
1,0.31673,1,1,1,1.58,1,1,0.086223,0,0,
1,0.88914,1,1,2,1.3285,0,1,0.038823,0,0,
1,1.9558,1,2,2,1.2682,1,1,0.038332,0,0,
1,0.27536,1,1,1,1.5502,1,2,0.26113,0,0,
1,1.269,1,2,2,1.1805,1,1,0.039967,0,0,
1,0.49716,1,2,2,1.6785,1,1,0.038545,0,0,
1,0.3377,1,1,1,1.0557,1,2,0.28653,0,0,
1,0.92789,1,2,2,1.0341,1,1,0.039363,0,0,
1,0.36009,1,2,2,1.2865,1,2,0.1214,0,0,
1,0.32106,1,1,1,1.0774,1,2,0.25695,0,0,
1,0.24841,1,2,2,1.9006,1,2,0.11955,0,0,
1,0.12961,1,2,2,1.8466,1,2,0.11915,0,0,
1,0.29663,1,2,2,1.3957,1,2,0.12236,0,0,
1,0.6775,1,2,2,1.1692,1,1,0.040078,0,0,
1,0.61836,1,2,2,1.4305,1,1,0.041121,0,0,
1,0.26451,1,1,1,1.4162,1,1,0.094887,0,0,
1,0.40002,1,1,1,1.7288,1,1,0.087036,0,0,
1,0.35252,1,1,1,1.4065,1,1,0.087441,0,0,
1,0.04521,1,2,2,1.9518,1,1,0.04071,0,0,
1,0.038903,1,2,1,1.912,0,1,0.086123,0,0,
1,0.13976,1,2,1,1.9514,0,1,0.089449,0,0,
1,1.7029,1,2,2,1.346,1,1,0.038473,0,0,
1,0.36796,1,1,1,1.2902,1,1,0.093067,0,0,
1,0.38184,1,2,2,1.8867,1,1,0.037615,0,0,
1,0.35574,1,1,1,1.21,1,2,0.28108,0,0,
1,1.0368,1,2,2,1.1309,1,1,0.040672,0,0,
1,0.2754,1,1,1,1.5205,1,2,0.27279,0,0,
1,0.068314,1,2,2,1.9055,1,1,0.038267,0,0,
1,0.86892,1,2,1,1.4352,1,1,0.088446,0,1,
1,0.40921,1,2,1,1.1577,1,2,0.27563,0,1,
1,0.25115,1,2,1,1.6005,1,1,0.092871,0,1,
1,0.53464,1,2,1,1.9375,1,2,0.265,0,1,
1,1.0258,1,1,2,1.1078,1,1,0.038973,0,1,
1,0.34612,1,1,1,1.9,0,1,0.089165,0,1,
1,1.1175,1,1,2,1.5505,1,1,0.040665,0,1,
1,0.29188,1,2,2,1.4274,0,2,0.11325,0,1,
1,0.50815,1,1,2,1.1524,1,2,0.1237,0,1,
1,0.63968,1,2,1,1.2475,1,2,0.26527,0,1,
1,0.6432,1,2,1,1.4474,1,1,0.090587,0,1,
1,0.74089,1,1,2,1.5328,1,2,0.12203,0,1,
1,0.62653,1,2,1,1.3547,1,1,0.092457,0,1,
1,0.77379,1,1,2,1.7731,1,2,0.11344,0,1,
1,0.53623,1,2,1,1.8817,1,1,0.092665,0,1,
1,0.91187,1,2,2,1.7341,0,1,0.037723,0,1,
1,1.331,1,2,1,1.4064,1,1,0.095364,0,1,
1,0.5276,1,1,2,1.6042,1,1,0.04116,0,1,
1,0.1645,1,1,1,1.6411,0,1,0.090748,0,1,
1,0.54468,1,1,2,1.1275,1,2,0.12057,0,1,
1,0.4281,1,1,2,1.4962,1,1,0.04159,0,1,
1,0.62246,1,1,2,1.3105,1,2,0.11312,0,1,
1,0.48047,1,1,2,1.5786,1,2,0.12159,0,1,
1,0.45537,1,1,2,1.9436,1,2,0.12264,0,1,
1,0.67222,1,2,1,1.4269,1,2,0.28072,0,1,
1,0.63735,1,1,2,1.0331,1,2,0.11398,0,1,
1,0.041147,1,2,1,1.9294,1,2,0.26955,0,1,
1,1.8606,1,1,2,1.925,1,1,0.037229,0,1,
1,0.61501,1,1,2,1.3583,1,2,0.11575,0,1,
1,0.87538,1,1,2,1.26,1,1,0.037748,0,1,
1,0.84573,1,2,1,1.7869,1,2,0.27023,0,1,
1,0.65019,1,1,2,1.5116,1,2,0.11909,0,1,
1,0.62223,1,2,1,1.5625,1,2,0.28107,0,1,
1,0.55093,1,1,2,1.6848,1,1,0.039007,0,1,
1,0.67274,1,1,2,1.0924,1,1,0.039517,0,1,
1,0.68379,1,1,2,1.8726,1,2,0.12404,0,1,
1,0.46094,1,2,1,1.9429,1,1,0.094851,0,1,
1,0.34001,1,2,1,1.0966,1,2,0.27318,0,1,
1,0.088097,1,2,2,1.8459,0,1,0.04123,0,1,
1,0.60017,1,2,1,1.9094,1,1,0.086035,0,1,
1,0.31827,1,2,1,1.0113,1,2,0.2816,0,1,
1,1.3499,1,2,1,1.5237,1,1,0.088886,0,1,
1,0.040531,1,1,2,1.6503,1,2,0.11447,0,1,
1,0.92427,1,1,2,1.3851,1,2,0.12257,0,1,
1,0.53096,1,1,2,1.6493,1,2,0.11606,0,1,
1,0.70796,1,2,2,1.7629,0,1,0.037882,0,1,
1,0.049339,1,1,1,1.5757,0,2,0.2574,0,1,
1,1.6957,1,1,2,1.6319,1,1,0.041488,0,1,
1,0.57061,1,2,1,1.2782,1,1,0.092491,0,1,
1,0.60899,1,1,2,1.8398,1,2,0.12311,0,1,
1,0.43643,1,2,1,1.4268,1,2,0.28587,0,1,
1,0.28881,1,1,1,1.6316,0,2,0.27747,0,1,
1,0.32625,1,2,1,1.8335,1,1,0.095051,0,1,
1,0.7575,1,1,2,1.2702,1,1,0.038281,0,1,
1,0.31103,1,2,1,1.4008,1,2,0.28411,0,1,
1,0.49351,1,1,2,1.5543,1,2,0.12396,0,1,
1,0.77734,1,2,2,1.4439,0,1,0.038473,0,1,
1,1.0172,1,1,2,1.0904,1,1,0.037482,0,1,
1,0.21265,1,1,1,1.7444,0,1,0.093423,0,1,
1,0.51333,1,1,2,1.0326,1,2,0.1126,0,1,
1,0.41989,1,1,2,1.4297,1,2,0.12126,0,1,
1,0.87839,1,1,2,1.0373,1,1,0.039134,0,1,
1,0.042205,1,1,2,1.9758,1,2,0.12018,0,1,
1,0.61633,1,1,2,1.5223,1,1,0.037899,0,1,
1,0.11375,1,1,1,1.9096,0,2,0.27276,0,1,
1,0.36383,1,2,1,1.3832,1,2,0.27599,0,1,
1,0.27934,1,2,1,1.8845,1,2,0.25699,0,1,
1,0.35542,1,2,1,1.255,1,2,0.27085,0,1,
1,1.3136,1,2,1,1.909,1,1,0.094711,0,1,
1,0.17123,1,1,2,1.8946,1,1,0.037658,0,1,
1,0.19867,1,1,2,1.3985,1,1,0.039109,0,1,
1,0.10054,1,1,2,1.625,1,1,0.040099,0,1,
1,0.10986,1,1,1,1.5676,0,2,0.26543,0,1,
1,0.20707,1,2,1,1.8945,1,2,0.28624,0,1,
1,0.30435,1,2,1,1.2142,1,1,0.09264,0,1,
1,0.35159,1,2,1,1.0039,1,1,0.087584,0,1,
1,0.87134,1,2,1,1.8806,1,1,0.091164,0,1,
1,0.53741,1,1,2,1.2351,1,2,0.12338,0,1,
1,0.40147,1,2,1,1.2449,1,2,0.27359,0,1,
1,0.36666,1,1,2,1.6409,1,1,0.040529,0,1,
1,0.23414,1,1,1,1.3045,0,2,0.28441,0,1,
1,0.35782,1,2,1,1.8256,1,1,0.094228,0,1,
1,0.27889,1,2,1,1.8837,1,1,0.086822,0,1,
1,0.079739,1,2,1,1.9454,1,1,0.087407,0,1,
1,0.49047,1,2,1,1.3908,1,2,0.26115,0,1,
1,0.15126,1,1,2,1.8013,1,2,0.11187,0,1,
1,0.71555,1,1,1,1.1571,0,1,0.085613,0,1,
1,0.66292,1,2,1,1.6252,1,1,0.091603,0,1,
1,0.071935,1,2,1,1.699,1,2,0.27521,0,1,
1,1.3766,1,1,2,1.0859,1,1,0.041314,0,1,
1,0.50054,1,2,1,1.5312,1,1,0.09306,0,1,
1,0.20203,1,1,2,1.8886,1,1,0.038478,0,1,
1,0.51352,1,1,2,1.2637,1,2,0.11805,0,1,
1,0.57295,1,1,2,1.2348,1,1,0.038288,0,1,
1,0.057488,1,1,2,1.8397,1,2,0.12132,0,1,
1,0.49034,1,2,1,1.4955,1,2,0.26004,0,1,
1,0.37595,1,2,1,1.1524,1,2,0.27958,0,1,
1,0.34706,1,2,1,1.2308,1,1,0.093881,0,1,
1,0.34335,1,2,2,1.658,0,1,0.040496,0,1,
1,0.54674,1,1,2,1.5629,1,2,0.11591,0,1,
1,0.87761,1,1,1,1.7876,1,1,0.090444,1,0,
1,0.11843,1,1,2,1.27,0,2,0.11387,1,0,
1,0.091838,1,1,1,1.844,1,2,0.25958,1,0,
1,0.64638,1,1,2,1.7405,0,1,0.038039,1,0,
1,0.21712,1,2,2,1.8261,1,1,0.037748,1,0,
1,0.37072,1,2,2,1.1822,1,2,0.11574,1,0,
1,1.004,1,1,2,1.0654,0,1,0.041465,1,0,
1,0.081609,1,2,1,1.6104,0,2,0.27278,1,0,
1,1.0164,1,1,2,1.7016,0,1,0.038242,1,0,
1,0.46224,1,2,2,1.1116,1,2,0.11726,1,0,
1,0.45006,1,1,1,1.0958,1,2,0.27712,1,0,
1,0.20048,1,2,2,1.5978,1,1,0.039586,1,0,
1,0.098563,1,2,1,1.8122,0,1,0.091736,1,0,
1,0.10472,1,2,1,1.8146,0,1,0.094459,1,0,
1,0.64786,1,2,2,1.0894,1,2,0.1165,1,0,
1,0.15642,1,1,1,1.7313,1,1,0.093225,1,0,
1,0.073493,1,2,2,1.9039,1,2,0.11353,1,0,
1,0.34374,1,2,2,1.4522,1,1,0.037416,1,0,
1,0.39278,1,1,1,1.0707,1,1,0.088935,1,0,
1,0.44204,1,1,1,1.2413,1,2,0.28188,1,0,
1,0.11066,1,2,2,1.7319,1,1,0.038818,1,0,
1,0.64162,1,2,2,1.0405,1,1,0.04157,1,0,
1,0.44195,1,2,2,1.4245,1,2,0.11955,1,0,
1,0.40091,1,2,2,1.5402,1,2,0.11593,1,0,
1,0.5105,1,1,1,1.9538,1,2,0.2855,1,0,
1,0.45888,1,1,1,1.2089,1,2,0.28453,1,0,
1,0.41269,1,1,1,1.1163,1,2,0.28297,1,0,
1,0.26628,1,2,2,1.6462,1,1,0.038282,1,0,
1,0.5577,1,1,1,1.1084,1,1,0.088381,1,0,
1,0.92072,1,1,1,1.9835,1,1,0.093559,1,0,
1,0.45669,1,1,1,1.2483,1,2,0.27815,1,0,
1,0.12792,1,2,2,1.6064,1,1,0.039335,1,0,
1,NaN,1,0,1,1.8167,NaN,1,0.095603,1,0,
1,0.044684,1,2,2,1.8301,1,2,0.11778,1,0,
1,0.23503,1,2,1,1.489,0,1,0.095903,1,0,
1,0.47483,1,2,2,1.7607,1,2,0.11798,1,0,
1,0.18974,1,2,1,1.9151,0,1,0.090627,1,0,
1,0.40557,1,2,2,1.901,1,2,0.12182,1,0,
1,0.49126,1,1,1,1.2142,1,2,0.26829,1,0,
1,0.18823,1,2,1,1.5471,0,2,0.27032,1,0,
1,0.081607,1,1,2,1.7847,0,1,0.03774,1,0,
1,0.90626,1,2,2,1.1944,1,1,0.040558,1,0,
1,0.14165,1,2,1,1.7469,0,1,0.091274,1,0,
1,0.39648,1,2,1,1.4756,0,1,0.092155,1,0,
1,1.1055,1,2,2,1.5833,1,1,0.040743,1,0,
1,0.47835,1,1,1,1.2605,1,2,0.26317,1,0,
1,0.69757,1,2,2,1.0848,1,1,0.041025,1,0,
1,0.38577,1,1,1,1.2981,1,2,0.28474,1,0,
1,0.047268,1,2,1,1.9171,0,2,0.26534,1,0,
1,0.74904,1,1,1,1.4705,1,1,0.092978,1,0,
1,0.53382,1,2,2,1.2695,1,2,0.11594,1,0,
1,0.40694,1,1,1,1.763,1,1,0.088251,1,0,
1,0.22947,1,2,2,1.7722,1,1,0.037903,1,0,
1,0.38853,1,1,1,1.0213,1,1,0.092318,1,0,
1,0.48684,1,2,2,1.88,1,2,0.1186,1,0,
1,0.22311,1,2,2,1.7982,1,2,0.12267,1,0,
1,0.41364,1,1,1,1.3242,1,2,0.26459,1,0,
1,0.44237,1,2,2,1.669,1,2,0.11378,1,0,
1,0.35979,1,1,1,1.2963,1,2,0.26963,1,0,
1,0.47332,1,2,2,1.93,1,2,0.11778,1,0,
1,0.80963,1,2,2,1.282,1,1,0.040683,1,0,
1,0.35664,1,1,1,1.1689,1,2,0.26046,1,0,
1,0.40696,1,2,2,1.7452,1,2,0.11216,1,0,
1,0.38715,1,1,1,1.4771,1,1,0.091931,1,0,
1,0.59852,1,2,2,1.6534,1,2,0.11187,1,0,
1,0.13956,1,2,1,1.9666,0,1,0.086875,1,0,
1,0.77667,1,1,1,1.313,1,1,0.092643,1,0,
1,0.4874,1,2,2,1.0764,1,2,0.11832,1,0,
1,1.4175,1,1,1,1.7914,1,1,0.091036,1,0,
1,0.37765,1,2,2,1.3654,1,2,0.12238,1,0,
1,0.55495,1,2,2,1.5851,1,1,0.040723,1,0,
1,0.41343,1,1,1,1.1833,1,2,0.27183,1,0,
1,0.41585,1,1,1,1.0769,1,2,0.26487,1,0,
1,0.3746,1,2,2,1.1537,1,2,0.11305,1,0,
1,0.43363,1,2,2,1.8269,1,2,0.12348,1,0,
1,0.71078,1,2,2,1.301,1,1,0.041559,1,0,
1,0.42331,1,1,1,1.3839,1,1,0.095326,1,0,
1,0.3956,1,1,1,1.6507,1,2,0.27613,1,0,
1,0.096103,1,2,1,1.8174,0,1,0.08642,1,0,
1,0.53317,1,2,2,1.7663,1,1,0.037488,1,0,
1,0.52534,1,2,2,1.3742,1,1,0.037956,1,0,
1,0.43264,1,1,1,1.1899,1,2,0.25751,1,0,
1,0.59779,1,1,1,1.6465,1,1,0.092968,1,0,
1,0.81678,1,2,2,1.0036,1,1,0.037789,1,0,
1,0.40851,1,1,1,1.2829,1,1,0.09202,1,0,
1,0.44139,1,1,1,1.6386,1,2,0.281,1,0,
1,0.51109,1,2,2,1.5921,1,2,0.11901,1,0,
1,0.65609,1,2,2,1.3253,1,1,0.038817,1,0,
1,0.060228,1,2,1,1.989,0,2,0.28202,1,0,
1,0.79478,1,2,1,1.1232,0,1,0.088579,1,0,
1,0.46575,1,2,2,1.7359,1,1,0.038559,1,0,
1,0.50441,1,2,2,1.1566,1,2,0.12205,1,0,
1,0.42893,1,2,2,1.4346,1,2,0.11816,1,0,
1,0.039247,1,1,1,1.8322,1,1,0.088132,1,0,
1,0.38778,1,2,2,1.3599,1,1,0.040437,1,0,
1,0.39282,1,1,1,1.0762,1,2,0.26143,1,0,
1,0.39288,1,2,2,1.5569,1,2,0.12397,1,0,
1,0.37981,1,1,1,1.2739,1,2,0.26322,1,0,
1,0.39399,1,1,1,1.1321,1,2,0.25905,1,0,
1,0.18506,1,2,2,1.6997,1,1,0.037483,1,0,
1,1.415,1,1,2,1.9691,1,1,0.038957,1,1,
1,0.69536,1,2,1,1.6891,1,1,0.088809,1,1,
1,0.08628,1,1,1,1.7179,0,1,0.093194,1,1,
1,0.35774,1,2,1,1.559,1,2,0.27959,1,1,
1,0.23387,1,1,2,1.5334,1,1,0.037919,1,1,
1,0.042987,1,1,1,1.8757,0,1,0.086689,1,1,
1,0.48708,1,1,2,1.3931,1,2,0.11376,1,1,
1,0.078342,1,1,2,1.4581,1,2,0.11985,1,1,
1,0.93419,1,1,2,1.2082,1,1,0.04095,1,1,
1,0.17711,1,1,2,1.7573,1,1,0.039415,1,1,
1,0.49266,1,1,2,1.5467,1,2,0.11365,1,1,
1,0.36099,1,2,1,1.3574,1,1,0.092854,1,1,
1,0.20083,1,2,2,1.701,0,2,0.12377,1,1,
1,1.9187,1,1,2,1.1092,1,1,0.038114,1,1,
1,0.44381,1,2,1,1.0066,1,1,0.094544,1,1,
1,0.23034,1,2,2,1.5973,0,2,0.11425,1,1,
1,0.60987,1,1,2,1.6592,1,2,0.12277,1,1,
1,0.50553,1,2,1,1.58,1,1,0.094417,1,1,
1,1.5577,1,1,2,1.91,1,1,0.039475,1,1,
1,0.056778,1,1,1,1.636,0,1,0.090355,1,1,
1,0.37269,1,2,1,1.5256,1,1,0.09475,1,1,
1,0.32905,1,2,1,1.2596,1,1,0.086167,1,1,
1,0.59163,1,2,2,1.0512,0,1,0.039412,1,1,
1,0.50711,1,2,1,1.732,1,1,0.09186,1,1,
1,0.75991,1,1,2,1.1643,1,1,0.040442,1,1,
1,0.35226,1,2,1,1.2804,1,2,0.26346,1,1,
1,0.042391,1,1,1,1.2594,0,2,0.25722,1,1,
1,0.48809,1,2,1,1.5471,1,2,0.26071,1,1,
1,0.38831,1,2,1,1.5413,1,2,0.28034,1,1,
1,0.11035,1,1,1,1.7881,0,1,0.095626,1,1,
1,0.081259,1,2,1,1.8696,1,2,0.26825,1,1,
1,0.70897,1,2,2,1.7875,0,1,0.04167,1,1,
1,0.12565,1,2,1,1.9694,1,1,0.088799,1,1,
1,0.090237,1,1,2,1.1805,1,2,0.11327,1,1,
1,0.62076,1,2,1,1.9306,1,2,0.26819,1,1,
1,0.52093,1,1,2,1.0452,1,2,0.11896,1,1,
1,0.70314,1,2,2,1.2406,0,1,0.03998,1,1,
1,0.5112,1,2,1,1.0089,1,2,0.27308,1,1,
1,0.68326,1,2,1,1.6716,1,2,0.26605,1,1,
1,0.67501,1,1,2,1.9048,1,2,0.11356,1,1,
1,0.41327,1,1,2,1.5724,1,2,0.11348,1,1,
1,0.54724,1,1,2,1.1555,1,2,0.11327,1,1,
1,0.60394,1,1,2,1.5024,1,1,0.040332,1,1,
1,0.082519,1,1,1,1.5677,0,2,0.27068,1,1,
1,0.29593,1,2,1,1.1883,1,1,0.086646,1,1,
1,0.073918,1,2,1,1.3242,1,2,0.27813,1,1,
1,0.074668,1,2,2,1.716,0,1,0.037945,1,1,
1,0.057685,1,1,1,1.5529,0,1,0.093814,1,1,
1,0.41514,1,1,2,1.1423,1,2,0.1183,1,1,
1,0.48031,1,2,1,1.3804,1,2,0.27329,1,1,
1,0.1094,1,1,1,1.3966,0,2,0.26278,1,1,
1,0.39087,1,2,1,1.5767,1,2,0.28083,1,1,
1,0.57617,1,2,2,1.0194,0,1,0.039489,1,1,
1,0.41597,1,1,2,1.5776,1,2,0.11908,1,1,
1,0.29776,1,1,2,1.9322,1,1,0.039017,1,1,
1,0.37411,1,1,2,1.1069,1,2,0.12115,1,1,
1,0.27077,1,1,1,1.7321,0,2,0.25874,1,1,
1,0.45555,1,2,1,1.9705,1,2,0.27476,1,1,
1,0.51203,1,1,2,1.6089,1,1,0.041044,1,1,
1,0.042354,1,1,1,1.7197,0,2,0.27018,1,1,
1,1.1523,1,2,1,1.3028,1,1,0.092197,1,1,
1,0.17211,1,1,2,1.459,1,2,0.11546,1,1,
1,0.33411,1,2,1,1.048,1,2,0.27516,1,1,
1,0.30803,1,2,1,1.3854,1,1,0.088314,1,1,
1,0.98914,1,1,2,1.3617,1,1,0.04075,1,1,
1,0.59268,1,1,2,1.2876,1,1,0.040735,1,1,
1,0.12851,1,2,1,1.8167,1,2,0.28636,1,1,
1,0.36195,1,2,2,1.4505,0,1,0.039118,1,1,
1,0.11228,1,1,1,1.8066,0,2,0.27043,1,1,
1,0.38198,1,2,1,1.7902,1,1,0.091638,1,1,
1,0.41812,1,1,2,1.283,1,2,0.12286,1,1,
1,1.5342,1,1,2,1.0683,1,2,0.1119,1,1,
1,0.87989,1,1,2,1.0549,1,1,0.037977,1,1,
1,0.28513,1,1,2,1.6375,1,2,0.1243,1,1,
1,0.28024,1,2,1,1.4243,1,1,0.095385,1,1,
1,1.3997,1,2,1,1.9055,1,1,0.090102,1,1,
1,0.3975,1,2,1,1.4173,1,2,0.28168,1,1,
1,0.29863,1,2,2,1.1541,0,2,0.12409,1,1,
1,0.29155,1,2,1,1.54,1,2,0.27723,1,1,
1,0.053984,1,2,1,1.9371,1,1,0.089269,1,1,
1,0.23911,1,2,1,1.661,1,2,0.26884,1,1,
1,0.61519,1,2,2,1.3947,0,1,0.039093,1,1,
1,1.1212,1,1,2,1.259,1,1,0.040187,1,1,
1,0.10572,1,1,2,1.8479,1,1,0.039211,1,1,
1,NaN,1,0,2,1.9451,NaN,2,0.12443,1,1,
1,0.42924,1,2,1,1.377,1,1,0.089088,1,1,
1,0.84273,1,1,2,1.0673,1,1,0.038646,1,1,
1,0.54632,1,1,2,1.1816,1,1,0.041205,1,1,
1,0.14139,1,1,2,1.5757,1,2,0.11873,1,1,
1,0.4219,1,1,2,1.1859,1,2,0.12155,1,1,
1,0.31364,1,1,2,1.2914,1,2,0.11311,1,1,
1,0.29189,1,2,1,1.4617,1,1,0.090105,1,1,
1,0.39854,1,1,2,1.347,1,2,0.11246,1,1,
1,0.25793,1,2,1,1.3182,1,2,0.27693,1,1,
1,0.81712,1,1,2,1.4599,1,1,0.040303,1,1,
1,0.48237,1,2,1,1.2359,1,1,0.095068,1,1,
1,0.32602,1,1,2,1.0278,1,2,0.1203,1,1,
1,0.095251,1,2,1,1.6585,1,1,0.092596,1,1,
1,0.43821,1,2,1,1.1588,1,2,0.28307,1,1,
1,0.89065,1,2,1,1.8027,1,1,0.090257,1,1,
1,NaN,1,0,2,1.0949,NaN,2,0.12397,0,0,
1,0.38049,1,1,1,1.3754,1,2,0.27213,0,0,
1,0.80336,1,2,2,1.546,1,2,0.12387,0,0,
1,0.11075,1,1,2,1.1117,0,2,0.11269,0,0,
1,0.48327,1,2,1,1.9045,0,1,0.095882,0,0,
1,0.5506,1,2,1,1.6333,0,1,0.086478,0,0,
1,0.79077,1,1,2,1.9054,0,1,0.038531,0,0,
1,0.7251,1,2,2,1.6306,1,1,0.040684,0,0,
1,0.62114,1,1,1,1.0142,1,2,0.275,0,0,
1,0.09159,1,2,2,1.3165,1,1,0.039215,0,0,
1,1.2522,1,1,2,1.1119,0,1,0.038465,0,0,
1,0.37699,1,1,1,1.6295,1,1,0.086845,0,0,
1,0.62372,1,2,1,1.0607,0,1,0.088478,0,0,
1,0.36824,1,1,1,1.674,1,2,0.26154,0,0,
1,0.4196,1,1,1,1.4774,1,1,0.088704,0,0,
1,0.56768,1,2,2,1.3055,1,1,0.03764,0,0,
1,0.38502,1,2,2,1.5163,1,2,0.12271,0,0,
1,0.319,1,1,1,1.707,1,2,0.28694,0,0,
1,0.31328,1,2,2,1.8136,1,1,0.038113,0,0,
1,0.35909,1,1,1,1.3158,1,2,0.2783,0,0,
1,0.70836,1,2,2,1.3113,1,1,0.037334,0,0,
1,0.26957,1,2,2,1.345,1,2,0.1197,0,0,
1,0.28746,1,1,1,1.6663,1,1,0.092375,0,0,
1,0.24808,1,2,2,1.8611,1,2,0.11198,0,0,
1,0.13366,1,2,2,1.7618,1,2,0.11154,0,0,
1,0.33104,1,2,2,1.8758,1,2,0.11334,0,0,
1,0.19424,1,2,2,1.8712,1,2,0.12314,0,0,
1,0.3317,1,2,2,1.1728,1,2,0.1151,0,0,
1,0.62545,1,2,2,1.8502,1,1,0.039513,0,0,
1,0.56042,1,1,1,1.9596,1,2,0.27247,0,0,
1,0.28159,1,2,2,1.7702,1,2,0.11903,0,0,
1,0.44578,1,2,2,1.875,1,1,0.038619,0,0,
1,0.31111,1,1,1,1.0674,1,2,0.26908,0,0,
1,0.349,1,1,1,1.6468,1,2,0.26911,0,0,
1,1.0112,1,2,2,1.3241,1,1,0.041625,0,0,
1,0.22362,1,1,1,1.6403,1,2,0.25828,0,0,
1,0.36636,1,1,1,1.8798,1,1,0.089519,0,0,
1,1.2138,1,1,2,1.3736,0,1,0.040712,0,0,
1,0.1181,1,2,1,1.7667,0,2,0.27474,0,0,
1,0.3782,1,1,1,1.1681,1,2,0.26588,0,0,
1,0.24591,1,1,1,1.5197,1,2,0.28464,0,0,
1,0.24573,1,1,1,1.6275,1,2,0.25934,0,0,
1,0.12363,1,2,1,1.7139,0,2,0.26617,0,0,
1,0.34082,1,1,1,1.3064,1,1,0.094718,0,0,
1,0.31939,1,2,2,1.2637,1,2,0.12027,0,0,
1,0.64368,1,1,2,1.916,0,1,0.040214,0,0,
1,0.50651,1,2,2,1.615,1,1,0.039251,0,0,
1,0.35676,1,1,1,1.0932,1,2,0.26078,0,0,
1,0.30321,1,2,2,1.6277,1,2,0.1244,0,0,
1,0.27001,1,1,1,1.192,1,2,0.28401,0,0,
1,0.25123,1,2,2,1.777,1,2,0.11726,0,0,
1,0.59771,1,2,2,1.8645,1,1,0.040917,0,0,
1,0.39302,1,1,1,1.3336,1,1,0.088786,0,0,
1,0.32444,1,1,1,1.1354,1,1,0.089221,0,0,
1,0.50452,1,2,2,1.7655,1,1,0.040728,0,0,
1,0.37376,1,1,1,1.3186,1,2,0.25952,0,0,
1,0.32019,1,1,1,1.2524,1,1,0.095428,0,0,
1,0.40933,1,1,1,1.2001,1,1,0.085538,0,0,
1,0.25721,1,1,1,1.069,1,2,0.26545,0,0,
1,0.26321,1,1,1,1.5519,1,1,0.086002,0,0,
1,0.34343,1,1,1,1.4038,1,1,0.089996,0,0,
1,0.65444,1,2,2,1.7501,1,1,0.040705,0,0,
1,0.36667,1,2,2,1.4872,1,1,0.041289,0,0,
1,0.34413,1,2,2,1.3848,1,2,0.11856,0,0,
1,0.59831,1,1,1,1.0614,1,1,0.093819,0,0,
1,0.47199,1,1,1,1.2137,1,1,0.091247,0,0,
1,0.3709,1,1,2,1.5439,0,1,0.040523,0,0,
1,0.39806,1,1,1,1.4106,1,1,0.085615,0,0,
1,0.36096,1,1,1,1.901,1,1,0.090349,0,0,
1,0.40445,1,2,2,1.0563,1,2,0.11476,0,0,
1,0.42331,1,2,2,1.4435,1,1,0.038508,0,0,
1,0.9852,1,2,2,1.5378,1,2,0.12463,0,0,
1,0.45728,1,1,1,1.1341,1,1,0.087604,0,0,
1,0.3961,1,1,1,1.5409,1,1,0.090805,0,0,
1,0.1137,1,2,1,1.8574,0,1,0.087774,0,0,
1,0.30579,1,2,2,1.198,1,2,0.11902,0,0,
1,0.35648,1,2,2,1.1556,1,1,0.041693,0,0,
1,0.29971,1,2,2,1.0614,1,2,0.11321,0,0,
1,0.32961,1,2,2,1.6611,1,1,0.041485,0,0,
1,0.32157,1,1,1,1.0186,1,2,0.26026,0,0,
1,0.27693,1,2,2,1.2911,1,2,0.11392,0,0,
1,0.34009,1,1,1,1.9738,1,2,0.2764,0,0,
1,0.34193,1,1,1,1.7646,1,1,0.086795,0,0,
1,0.32312,1,2,2,1.2437,1,2,0.11255,0,0,
1,0.27028,1,2,2,1.6821,1,2,0.12029,0,0,
1,0.32006,1,2,2,1.1379,1,2,0.11185,0,0,
1,0.31211,1,1,1,1.6298,1,2,0.28739,0,0,
1,0.61287,1,2,2,1.857,1,1,0.039548,0,0,
1,0.46726,1,2,2,1.8998,1,1,0.038801,0,0,
1,0.32737,1,2,2,1.3484,1,2,0.12095,0,0,
1,0.32761,1,1,1,1.4863,1,2,0.28614,0,0,
1,0.53132,1,2,2,1.6795,1,1,0.038839,0,0,
1,0.27563,1,1,1,1.7041,1,2,0.27788,0,0,
1,0.27275,1,1,1,1.4609,1,1,0.091662,0,0,
1,0.28936,1,1,1,1.3643,1,2,0.28052,0,0,
1,0.28292,1,1,1,1.2803,1,1,0.091554,0,0,
1,0.34965,1,2,2,1.0762,1,2,0.11644,0,0,
1,0.28684,1,1,1,1.4446,1,1,0.094323,0,0,
1,0.29305,1,1,1,1.1657,1,2,0.26333,0,0,
1,0.56945,1,2,2,1.3987,1,1,0.040738,0,0,
1,0.058154,1,1,2,1.6531,1,1,0.037742,0,1,
1,0.45978,1,1,2,1.0403,1,1,0.039662,0,1,
1,0.11901,1,1,1,1.5047,0,2,0.27306,0,1,
1,1.0376,1,1,2,1.8945,1,2,0.11239,0,1,
1,0.54776,1,1,2,1.3857,1,1,0.041646,0,1,
1,0.55267,1,2,1,1.2921,1,2,0.2641,0,1,
1,0.69814,1,1,2,1.234,1,2,0.11562,0,1,
1,0.47266,1,2,1,1.2009,1,2,0.26561,0,1,
1,0.42313,1,2,1,1.3803,1,2,0.25782,0,1,
1,0.5628,1,1,2,1.5948,1,1,0.039496,0,1,
1,0.48654,1,2,1,1.2684,1,1,0.088082,0,1,
1,0.48126,1,1,2,1.6224,1,2,0.11687,0,1,
1,0.29154,1,2,2,1.8046,0,2,0.12435,0,1,
1,0.61297,1,1,2,1.104,1,2,0.12395,0,1,
1,0.6936,1,1,2,1.7292,1,1,0.037689,0,1,
1,0.47233,1,2,1,1.6486,1,2,0.27467,0,1,
1,0.60415,1,2,2,1.4747,0,1,0.038738,0,1,
1,0.52167,1,1,2,1.9329,1,1,0.040376,0,1,
1,0.52014,1,2,1,1.0964,1,2,0.27251,0,1,
1,0.61535,1,1,2,1.5991,1,2,0.1149,0,1,
1,0.5424,1,2,1,1.2336,1,1,0.090519,0,1,
1,0.39019,1,1,2,1.0323,1,2,0.12305,0,1,
1,0.12847,1,1,2,1.5799,1,2,0.1212,0,1,
1,0.10893,1,1,1,1.8422,0,1,0.087507,0,1,
1,1.595,1,1,2,1.5569,1,1,0.037846,0,1,
1,0.1099,1,1,2,1.8399,1,2,0.11636,0,1,
1,0.47599,1,1,2,1.205,1,2,0.12314,0,1,
1,0.65602,1,1,2,1.6213,1,1,0.040215,0,1,
1,0.61482,1,1,2,1.174,1,1,0.039982,0,1,
1,0.50543,1,2,1,1.2895,1,1,0.086927,0,1,
1,0.5414,1,1,2,1.0185,1,2,0.11252,0,1,
1,0.42953,1,1,2,1.7015,1,2,0.12333,0,1,
1,0.4512,1,2,1,1.9521,1,1,0.089765,0,1,
1,0.62373,1,1,2,1.749,1,1,0.039313,0,1,
1,0.48775,1,1,2,1.7567,1,2,0.11757,0,1,
1,0.54531,1,2,1,1.5421,1,1,0.090755,0,1,
1,0.80025,1,1,2,1.2821,1,1,0.038349,0,1,
1,0.44814,1,2,1,1.2449,1,2,0.2635,0,1,
1,0.43171,1,1,2,1.2863,1,2,0.12367,0,1,
1,1.8031,1,1,2,1.9631,1,1,0.041266,0,1,
1,0.59107,1,1,2,1.2307,1,1,0.039842,0,1,
1,0.090233,1,1,1,1.5373,0,2,0.26759,0,1,
1,0.37674,1,2,1,1.205,1,2,0.27488,0,1,
1,0.44768,1,2,1,1.434,1,1,0.092366,0,1,
1,0.37637,1,2,2,1.1422,0,2,0.1236,0,1,
1,0.53708,1,2,1,1.3756,1,1,0.086388,0,1,
1,0.19576,1,1,2,1.7936,1,1,0.039546,0,1,
1,0.47107,1,1,2,1.8128,1,1,0.039046,0,1,
1,0.32444,1,1,1,1.9038,0,2,0.27546,0,1,
1,0.4242,1,2,1,1.5404,1,2,0.27362,0,1,
1,0.34029,1,2,1,1.8179,1,1,0.087777,0,1,
1,1.1061,1,1,2,1.7084,1,1,0.037617,0,1,
1,0.65707,1,1,2,1.0432,1,1,0.037209,0,1,
1,0.60096,1,1,2,1.1459,1,2,0.11226,0,1,
1,1.2171,1,1,2,1.2333,1,1,0.038573,0,1,
1,0.5276,1,2,1,1.2467,1,1,0.093553,0,1,
1,0.39559,1,2,1,1.1703,1,1,0.088891,0,1,
1,0.32832,1,2,1,1.2351,1,1,0.091847,0,1,
1,0.49183,1,1,2,1.2755,1,2,0.125,0,1,
1,0.69095,1,2,1,1.9516,1,1,0.092148,0,1,
1,0.40655,1,2,1,1.3467,1,1,0.091007,0,1,
1,0.53382,1,1,2,1.2973,1,1,0.038174,0,1,
1,0.53213,1,1,2,1.4044,1,2,0.12141,0,1,
1,0.40396,1,2,1,1.3022,1,1,0.094741,0,1,
1,0.4344,1,2,1,1.7573,1,1,0.094423,0,1,
1,0.4184,1,2,1,1.3597,1,2,0.27483,0,1,
1,0.67427,1,1,2,1.1249,1,1,0.040077,0,1,
1,0.42381,1,2,1,1.6172,1,1,0.095025,0,1,
1,0.48135,1,1,2,1.3555,1,2,0.1172,0,1,
1,0.38256,1,2,1,1.3629,1,1,0.088425,0,1,
1,0.42345,1,2,1,1.0685,1,1,0.091977,0,1,
1,0.35454,1,2,1,1.8672,1,1,0.088482,0,1,
1,0.48979,1,1,2,1.4579,1,1,0.039926,0,1,
1,0.36076,1,2,2,1.0776,0,2,0.11211,0,1,
1,0.56902,1,2,1,1.9049,1,2,0.2877,0,1,
1,0.36297,1,2,1,1.2817,1,2,0.26275,0,1,
1,0.35824,1,2,1,1.6139,1,2,0.27515,0,1,
1,0.59162,1,1,2,1.6619,1,2,0.11605,0,1,
1,0.3769,1,2,1,1.2,1,1,0.092891,0,1,
1,0.33271,1,2,1,1.96,1,2,0.2574,0,1,
1,0.33073,1,2,1,1.6651,1,2,0.25855,0,1,
1,0.31555,1,2,1,1.5413,1,2,0.28547,0,1,
1,0.32611,1,2,1,1.869,1,2,0.25918,0,1,
1,NaN,1,0,2,1.557,NaN,1,0.038617,0,1,
1,0.08813,1,1,1,1.0214,0,2,0.27259,0,1,
1,0.31475,1,2,1,1.4827,1,1,0.087987,0,1,
1,0.31119,1,2,1,1.808,1,2,0.27312,0,1,
1,0.28924,1,2,1,1.736,1,1,0.093568,0,1,
1,0.29681,1,2,2,1.5723,0,2,0.1184,0,1,
1,0.4346,1,2,1,1.009,1,2,0.28563,0,1,
1,0.33622,1,2,2,1.7183,0,2,0.1134,0,1,
1,0.59039,1,1,2,1.4494,1,1,0.038994,0,1,
1,0.78135,1,2,1,1.6596,1,2,0.26499,0,1,
1,0.59822,1,1,2,1.7532,1,1,0.039816,0,1,
1,0.13453,1,1,2,1.8047,1,2,0.11197,0,1,
1,0.45802,1,2,1,1.0292,1,2,0.25846,0,1,
1,0.52389,1,1,2,1.7798,1,2,0.11572,0,1,
1,0.54052,1,2,1,1.5674,1,1,0.086498,0,1,
1,0.4248,1,2,1,1.0761,1,2,0.26164,0,1,
1,0.34132,1,2,1,1.2516,1,1,0.089257,0,1,
1,0.663,1,1,1,1.1448,1,2,0.26039,1,0,
1,0.46894,1,1,1,1.2449,1,2,0.26745,1,0,
1,0.39386,1,2,2,1.379,1,2,0.11398,1,0,
1,0.75231,1,1,1,1.2703,1,1,0.092855,1,0,
1,0.43844,1,1,1,1.2156,1,2,0.26188,1,0,
1,0.47008,1,2,2,1.6337,1,2,0.12492,1,0,
1,0.56926,1,2,2,1.7997,1,1,0.03724,1,0,
1,0.67757,1,2,2,1.2085,1,1,0.037337,1,0,
1,0.058605,1,2,1,1.8963,0,2,0.28146,1,0,
1,0.66945,1,2,1,1.7457,0,1,0.094423,1,0,
1,0.37548,1,1,1,1.5364,1,2,0.27385,1,0,
1,0.55908,1,2,2,1.97,1,1,0.040538,1,0,
1,0.40819,1,1,1,1.5649,1,2,0.27238,1,0,
1,0.80107,1,2,2,1.2177,1,1,0.03976,1,0,
1,0.78747,1,2,2,1.8578,1,1,0.037992,1,0,
1,0.43333,1,1,1,1.862,1,2,0.27188,1,0,
1,0.44456,1,1,1,1.3133,1,2,0.25808,1,0,
1,0.47243,1,1,1,1.327,1,1,0.086078,1,0,
1,0.34862,1,1,1,1.84,1,2,0.26667,1,0,
1,0.46638,1,2,2,1.4925,1,2,0.1199,1,0,
1,0.4243,1,2,2,1.0519,1,2,0.12356,1,0,
1,0.42149,1,2,2,1.778,1,2,0.12049,1,0,
1,0.34846,1,2,2,1.4267,1,2,0.12065,1,0,
1,0.81509,1,2,2,1.28,1,1,0.040266,1,0,
1,0.35577,1,2,2,1.3335,1,2,0.12226,1,0,
1,0.37269,1,1,1,1.3669,1,2,0.27685,1,0,
1,0.16722,1,2,1,1.7948,0,1,0.090799,1,0,
1,0.39099,1,1,1,1.0387,1,2,0.26656,1,0,
1,0.40786,1,2,2,1.7267,1,1,0.041387,1,0,
1,0.1027,1,2,2,1.8727,1,2,0.11471,1,0,
1,0.40464,1,2,1,1.2858,0,1,0.090708,1,0,
1,0.61753,1,1,1,1.6568,1,1,0.093133,1,0,
1,0.42124,1,2,2,1.2319,1,2,0.11481,1,0,
1,0.47976,1,2,2,1.622,1,2,0.1229,1,0,
1,0.54775,1,1,1,1.0751,1,1,0.09099,1,0,
1,0.078581,1,1,2,1.9668,0,2,0.12382,1,0,
1,0.53871,1,1,1,1.61,1,2,0.26714,1,0,
1,0.54528,1,2,2,1.3837,1,1,0.041392,1,0,
1,0.52111,1,2,2,1.0306,1,1,0.041356,1,0,
1,0.12371,1,2,1,1.8576,0,1,0.091511,1,0,
1,0.48321,1,1,1,1.6035,1,1,0.086532,1,0,
1,0.14547,1,2,2,1.8478,1,1,0.03877,1,0,
1,0.93556,1,2,1,1.5046,0,1,0.088283,1,0,
1,0.87227,1,2,1,1.0079,0,1,0.088184,1,0,
1,0.68001,1,1,1,1.9191,1,2,0.26335,1,0,
1,0.56914,1,1,1,1.4107,1,2,0.25661,1,0,
1,0.552,1,1,1,1.7324,1,1,0.094784,1,0,
1,0.65648,1,2,2,1.1511,1,2,0.11748,1,0,
1,0.64675,1,1,1,1.8152,1,1,0.091413,1,0,
1,0.48577,1,1,1,1.9096,1,1,0.088688,1,0,
1,0.49979,1,1,1,1.7779,1,2,0.28768,1,0,
1,0.070176,1,1,1,1.7571,1,1,0.095781,1,0,
1,0.41902,1,2,2,1.4052,1,2,0.1246,1,0,
1,0.41173,1,2,2,1.7019,1,2,0.12039,1,0,
1,0.64001,1,2,2,1.5655,1,1,0.040408,1,0,
1,0.5188,1,1,1,1.5847,1,1,0.088877,1,0,
1,0.36922,1,2,2,1.3449,1,2,0.11842,1,0,
1,0.158,1,2,2,1.7042,1,1,0.038355,1,0,
1,0.44454,1,2,2,1.1609,1,1,0.040371,1,0,
1,0.48429,1,1,1,1.0015,1,2,0.28061,1,0,
1,0.47201,1,1,1,1.562,1,1,0.086326,1,0,
1,0.42775,1,1,1,1.5465,1,2,0.2632,1,0,
1,0.44667,1,2,2,1.5508,1,1,0.03805,1,0,
1,0.45223,1,1,1,1.6945,1,2,0.27568,1,0,
1,0.75999,1,1,1,1.9275,1,1,0.092971,1,0,
1,0.72068,1,2,2,1.9442,1,1,0.040914,1,0,
1,0.09,1,2,1,1.9033,0,1,0.08571,1,0,
1,0.52873,1,2,2,1.6041,1,1,0.038042,1,0,
1,0.45195,1,1,1,1.9262,1,1,0.090269,1,0,
1,0.41905,1,1,2,1.1169,0,1,0.038822,1,0,
1,0.48183,1,1,1,1.3408,1,2,0.26683,1,0,
1,0.46539,1,1,2,1.0367,0,1,0.037441,1,0,
1,0.78593,1,2,2,1.5384,1,2,0.12171,1,0,
1,0.47888,1,1,1,1.7372,1,2,0.26875,1,0,
1,1.088,1,2,2,1.1812,1,1,0.040167,1,0,
1,0.59016,1,2,2,1.4262,1,2,0.1188,1,0,
1,0.40242,1,2,2,1.0982,1,1,0.037388,1,0,
1,0.4358,1,2,2,1.3032,1,2,0.11552,1,0,
1,0.45301,1,1,1,1.7801,1,2,0.28673,1,0,
1,0.36234,1,2,2,1.537,1,2,0.12412,1,0,
1,0.37877,1,2,2,1.7691,1,2,0.11646,1,0,
1,0.43685,1,1,2,1.6389,0,1,0.039906,1,0,
1,0.41351,1,1,1,1.8931,1,1,0.091246,1,0,
1,0.48394,1,1,2,1.0607,0,1,0.040896,1,0,
1,0.45449,1,1,1,1.1758,1,1,0.095493,1,0,
1,1.0172,1,1,1,1.4163,1,1,0.08627,1,0,
1,0.45052,1,1,1,1.7398,1,2,0.28419,1,0,
1,0.41532,1,1,1,1.893,1,2,0.27373,1,0,
1,0.46326,1,2,2,1.0259,1,2,0.11402,1,0,
1,0.4783,1,2,2,1.1376,1,2,0.11438,1,0,
1,1.0041,1,2,2,1.4241,1,1,0.040313,1,0,
1,0.10578,1,2,1,1.7646,0,1,0.091606,1,0,
1,0.57671,1,2,2,1.5244,1,1,0.039762,1,0,
1,0.056114,1,2,2,1.7545,1,1,0.041551,1,0,
1,0.41849,1,2,2,1.1698,1,2,0.11922,1,0,
1,0.040975,1,2,1,1.6727,0,1,0.086512,1,0,
1,0.35501,1,1,1,1.6187,1,2,0.26154,1,0,
1,0.53459,1,2,2,1.0068,1,2,0.11282,1,0,
1,0.433,1,1,1,1.7402,1,2,0.26093,1,0,
1,0.3671,1,2,2,1.9917,1,2,0.12046,1,0,
1,0.77518,1,1,2,1.1007,1,2,0.12261,1,1,
1,0.50952,1,2,2,1.2866,0,1,0.040584,1,1,
1,0.36046,1,1,2,1.3548,1,1,0.041451,1,1,
1,1.064,1,1,2,1.5358,1,1,0.038622,1,1,
1,0.51945,1,2,1,1.9908,1,2,0.26835,1,1,
1,0.48877,1,1,2,1.0282,1,2,0.11345,1,1,
1,0.51443,1,2,1,1.7095,1,2,0.26662,1,1,
1,0.39022,1,2,1,1.9052,1,2,0.27346,1,1,
1,0.39539,1,2,1,1.8658,1,1,0.091117,1,1,
1,0.72755,1,1,2,1.1192,1,1,0.03786,1,1,
1,1.6666,1,1,2,1.9553,1,1,0.037671,1,1,
1,0.25719,1,1,2,1.4409,1,1,0.038912,1,1,
1,0.68077,1,2,1,1.8758,1,2,0.28234,1,1,
1,0.33921,1,2,1,1.865,1,2,0.26209,1,1,
1,0.45611,1,2,1,1.3552,1,1,0.090599,1,1,
1,0.66629,1,1,2,1.6311,1,2,0.11313,1,1,
1,0.30865,1,2,2,1.8645,0,2,0.12317,1,1,
1,0.56561,1,1,2,1.021,1,2,0.12179,1,1,
1,0.56156,1,2,1,1.0768,1,2,0.27379,1,1,
1,0.58981,1,1,2,1.3767,1,2,0.11661,1,1,
1,0.64597,1,2,2,1.1492,0,1,0.039324,1,1,
1,1.6418,1,1,2,1.0341,1,1,0.041162,1,1,
1,0.5037,1,2,1,1.7822,1,2,0.28475,1,1,
1,0.6728,1,1,2,1.3272,1,1,0.039362,1,1,
1,0.088642,1,1,1,1.8175,0,1,0.090897,1,1,
1,0.45363,1,2,1,1.1736,1,2,0.2849,1,1,
1,0.45788,1,1,2,1.6761,1,2,0.11918,1,1,
1,0.11726,1,1,1,1.8756,0,1,0.093514,1,1,
1,0.43914,1,1,2,1.7572,1,1,0.040107,1,1,
1,0.36506,1,2,1,1.2296,1,2,0.27083,1,1,
1,0.37908,1,2,1,1.3589,1,2,0.26315,1,1,
1,0.51472,1,1,2,1.3632,1,2,0.11951,1,1,
1,0.39526,1,2,1,1.2674,1,2,0.26207,1,1,
1,0.36936,1,2,1,1.3373,1,1,0.087491,1,1,
1,0.4658,1,2,1,1.087,1,2,0.28334,1,1,
1,0.48161,1,1,2,1.4516,1,1,0.037708,1,1,
1,0.23622,1,1,2,1.4547,1,1,0.040034,1,1,
1,0.57844,1,1,1,1.029,0,1,0.08994,1,1,
1,0.57765,1,1,2,1.6371,1,2,0.11965,1,1,
1,0.58905,1,1,2,1.0595,1,2,0.12138,1,1,
1,0.48908,1,1,2,1.1692,1,1,0.038487,1,1,
1,0.17215,1,1,2,1.6847,1,1,0.037351,1,1,
1,0.52828,1,2,1,1.5546,1,1,0.094159,1,1,
1,0.52772,1,1,2,1.006,1,2,0.11634,1,1,
1,0.41071,1,1,2,1.2881,1,2,0.12032,1,1,
1,0.38809,1,1,2,1.3766,1,2,0.12361,1,1,
1,0.58084,1,2,1,1.1465,1,1,0.088266,1,1,
1,0.41773,1,2,2,1.0745,0,2,0.12507,1,1,
1,0.65234,1,1,2,1.4607,1,1,0.040914,1,1,
1,0.45616,1,1,2,1.3704,1,2,0.12214,1,1,
1,0.4354,1,1,2,1.8246,1,2,0.12026,1,1,
1,0.37985,1,1,2,1.5375,1,2,0.1187,1,1,
1,0.57687,1,2,1,1.8175,1,2,0.26825,1,1,
1,0.45303,1,1,2,1.4604,1,2,0.12257,1,1,
1,0.92978,1,1,2,1.014,1,1,0.039803,1,1,
1,0.61673,1,2,1,1.005,1,1,0.093577,1,1,
1,0.57009,1,1,2,1.1662,1,1,0.041643,1,1,
1,0.52242,1,1,2,1.3659,1,2,0.12209,1,1,
1,0.47561,1,2,1,1.7182,1,2,0.28304,1,1,
1,0.41356,1,2,1,1.1594,1,2,0.27132,1,1,
1,0.44981,1,1,1,1.2788,0,1,0.094574,1,1,
1,0.55216,1,1,2,1.6449,1,2,0.11587,1,1,
1,0.60762,1,2,1,1.2872,1,2,0.26271,1,1,
1,0.49309,1,2,1,1.3219,1,1,0.090532,1,1,
1,0.46437,1,2,1,1.1554,1,1,0.085831,1,1,
1,0.40252,1,2,1,1.3877,1,1,0.094073,1,1,
1,0.41692,1,2,1,1.8957,1,2,0.2645,1,1,
1,0.37774,1,2,1,1.8878,1,2,0.27738,1,1,
1,0.57849,1,1,2,1.3936,1,1,0.040724,1,1,
1,0.63066,1,1,2,1.6755,1,2,0.12061,1,1,
1,0.46258,1,2,1,1.2522,1,2,0.27653,1,1,
1,0.3956,1,2,1,1.95,1,2,0.26368,1,1,
1,0.56648,1,2,1,1.6247,1,1,0.090356,1,1,
1,0.90135,1,1,2,1.2069,1,1,0.041398,1,1,
1,0.64141,1,1,2,1.1097,1,1,0.038213,1,1,
1,0.37445,1,2,1,1.5658,1,2,0.26282,1,1,
1,0.43992,1,2,1,1.2743,1,1,0.088249,1,1,
1,0.41752,1,2,1,1.0712,1,1,0.093514,1,1,
1,0.37943,1,2,1,1.1584,1,1,0.08885,1,1,
1,0.35207,1,2,1,1.0495,1,1,0.091673,1,1,
1,0.62484,1,1,2,1.6809,1,1,0.037963,1,1,
1,0.4071,1,2,1,1.7818,1,2,0.25917,1,1,
1,0.59784,1,1,2,1.8074,1,2,0.11554,1,1,
1,0.65023,1,2,1,1.2651,1,1,0.087827,1,1,
1,0.62125,1,1,1,1.8959,0,1,0.094961,1,1,
1,0.53129,1,2,1,1.608,1,1,0.095264,1,1,
1,0.472,1,1,2,1.0144,1,2,0.11191,1,1,
1,0.73381,1,1,2,1.344,1,1,0.039796,1,1,
1,0.44061,1,2,1,1.5337,1,1,0.085956,1,1,
1,0.38579,1,1,1,1.6278,0,1,0.089811,1,1,
1,0.35235,1,2,1,1.4467,1,1,0.090817,1,1,
1,0.1186,1,1,1,1.8111,0,1,0.094211,1,1,
1,0.32791,1,2,1,1.1448,1,2,0.27571,1,1,
1,0.66885,1,1,2,1.9748,1,2,0.11482,1,1,
1,0.54952,1,2,1,1.8338,1,2,0.28474,1,1,
1,0.53897,1,1,2,1.3401,1,1,0.040599,1,1,
1,0.48705,1,1,2,1.6162,1,2,0.11896,1,1,
1,0.58178,1,1,2,1.3038,1,1,0.041211,1,1,
1,1.193,1,1,2,1.0892,1,1,0.038776,1,1,
1,0.38823,1,2,1,1.5215,1,2,0.26674,1,1,
1,0.07094,1,2,1,1.3339,0,2,0.28269,0,0,
1,0.34697,1,1,1,1.6328,1,2,0.27961,0,0,
1,0.35779,1,1,1,1.4155,1,1,0.095348,0,0,
1,0.10434,1,2,2,1.5765,1,2,0.12395,0,0,
1,0.65386,1,2,2,1.9595,1,2,0.1144,0,0,
1,0.10282,1,2,2,1.6158,1,2,0.11824,0,0,
1,0.40917,1,1,1,1.1506,1,1,0.093643,0,0,
1,0.51523,1,1,1,1.8383,1,2,0.27248,0,0,
1,0.30639,1,1,1,1.7262,1,1,0.091824,0,0,
1,0.46066,1,2,2,1.1088,1,1,0.039634,0,0,
1,0.48404,1,2,2,1.1614,1,2,0.12129,0,0,
1,0.39107,1,2,2,1.297,1,1,0.037439,0,0,
1,0.38246,1,1,1,1.4236,1,1,0.090516,0,0,
1,0.39654,1,2,2,1.5284,1,1,0.038164,0,0,
1,0.44458,1,2,2,1.2751,1,1,0.038639,0,0,
1,0.32318,1,1,1,1.828,1,2,0.27339,0,0,
1,0.5347,1,2,2,1.7928,1,2,0.12147,0,0,
1,0.34925,1,1,1,1.2737,1,1,0.089681,0,0,
1,0.10921,1,1,1,1.6157,1,1,0.090671,0,0,
1,0.079882,1,1,1,1.1016,1,1,0.086803,0,0,
1,0.77442,1,2,2,1.67,1,2,0.11429,0,0,
1,0.37334,1,2,2,1.3474,1,1,0.038441,0,0,
1,0.47813,1,1,1,1.6695,1,1,0.090071,0,0,
1,0.32758,1,1,1,1.2953,1,2,0.26377,0,0,
1,0.35376,1,1,1,1.6804,1,1,0.088155,0,0,
1,0.49478,1,2,2,1.3938,1,1,0.041184,0,0,
1,0.28909,1,1,1,1.3918,1,1,0.091494,0,0,
1,0.62973,1,2,2,1.207,1,1,0.041408,0,0,
1,0.38208,1,1,1,1.7245,1,2,0.27549,0,0,
1,0.43398,1,2,2,1.8193,1,2,0.11477,0,0,
1,0.29894,1,1,1,1.9265,1,1,0.086539,0,0,
1,0.78419,1,2,2,1.5141,1,2,0.11874,0,0,
1,0.42372,1,2,2,1.1931,1,2,0.11733,0,0,
1,0.37556,1,2,2,1.6029,1,1,0.040247,0,0,
1,0.33915,1,1,1,1.1982,1,2,0.28001,0,0,
1,0.29675,1,1,1,1.4104,1,2,0.26864,0,0,
1,0.30596,1,1,1,1.8531,1,2,0.27389,0,0,
1,0.28616,1,1,1,1.4291,1,2,0.26272,0,0,
1,0.31156,1,1,1,1.9257,1,2,0.28601,0,0,
1,0.37178,1,1,1,1.3731,1,1,0.090725,0,0,
1,0.35999,1,2,2,1.6982,1,2,0.1151,0,0,
1,0.40936,1,1,1,1.5886,1,2,0.26343,0,0,
1,0.40626,1,2,2,1.1009,1,2,0.12443,0,0,
1,0.30488,1,1,1,1.4124,1,1,0.092589,0,0,
1,1.7211,1,2,2,1.9247,1,1,0.040323,0,0,
1,0.47864,1,2,2,1.0556,1,1,0.040087,0,0,
1,0.37004,1,1,1,1.384,1,2,0.28064,0,0,
1,0.41292,1,1,2,1.2406,0,1,0.039735,0,0,
1,0.4307,1,2,2,1.2278,1,2,0.11815,0,0,
1,0.33172,1,2,2,1.3571,1,2,0.12337,0,0,
1,0.42098,1,1,1,1.9241,1,1,0.089482,0,0,
1,0.41835,1,1,1,1.5025,1,1,0.087946,0,0,
1,0.37887,1,1,1,1.8032,1,2,0.26503,0,0,
1,0.4099,1,1,1,1.3503,1,1,0.094913,0,0,
1,0.37156,1,2,2,1.4587,1,2,0.1209,0,0,
1,0.13006,1,2,1,1.9511,0,2,0.28305,0,0,
1,0.40553,1,1,1,1.133,1,2,0.268,0,0,
1,0.32359,1,1,1,1.0703,1,2,0.27597,0,0,
1,1.0197,1,2,2,1.7061,1,1,0.037302,0,0,
1,0.107,1,1,2,1.9317,0,1,0.04132,0,0,
1,0.27152,1,1,1,1.1089,1,2,0.27083,0,0,
1,0.86767,1,2,2,1.6517,1,1,0.039459,0,0,
1,0.64363,1,2,2,1.1461,1,1,0.040595,0,0,
1,0.51199,1,2,2,1.694,1,2,0.1159,0,0,
1,0.080923,1,2,2,1.6256,1,1,0.039944,0,0,
1,0.5308,1,2,2,1.0437,1,2,0.11578,0,0,
1,1.1548,1,1,1,1.7979,1,1,0.088642,0,0,
1,0.46182,1,1,1,1.9862,1,2,0.27638,0,0,
1,0.20943,1,1,2,1.4367,0,1,0.03907,0,0,
1,0.49639,1,2,2,1.3447,1,1,0.03761,0,0,
1,0.40825,1,2,2,1.0488,1,2,0.11457,0,0,
1,0.38337,1,1,1,1.2252,1,1,0.095648,0,0,
1,0.58646,1,2,2,1.581,1,1,0.040281,0,0,
1,0.82181,1,2,2,1.6014,1,1,0.040098,0,0,
1,0.45803,1,2,2,1.2525,1,2,0.11577,0,0,
1,0.53457,1,1,1,1.6543,1,1,0.085719,0,0,
1,0.42642,1,2,2,1.0601,1,2,0.11907,0,0,
1,0.33056,1,1,1,1.9405,1,1,0.085882,0,0,
1,0.4353,1,1,1,1.0925,1,1,0.08817,0,0,
1,1.0423,1,2,2,1.334,1,1,0.037992,0,0,
1,0.39153,1,2,2,1.651,1,2,0.11742,0,0,
1,0.31245,1,1,1,1.5039,1,2,0.28031,0,0,
1,0.54129,1,1,1,1.5309,1,1,0.091935,0,0,
1,0.47919,1,2,2,1.3791,1,2,0.11561,0,0,
1,0.28959,1,1,1,1.7689,1,2,0.26534,0,0,
1,0.071627,1,1,1,1.2825,1,2,0.25889,0,0,
1,1.6016,1,2,2,1.6493,1,1,0.03791,0,0,
1,0.098497,1,2,2,1.9222,1,2,0.12115,0,0,
1,0.31282,1,1,1,1.3307,1,2,0.25923,0,0,
1,0.11547,1,2,2,1.8134,1,2,0.12393,0,0,
1,0.1196,1,2,1,1.7876,0,1,0.089861,0,0,
1,0.3407,1,1,1,1.1243,1,2,0.25894,0,0,
1,0.053402,1,1,2,1.1574,0,2,0.11909,0,0,
1,0.10626,1,1,2,1.415,0,1,0.040902,0,0,
1,0.092977,1,1,2,1.6873,0,1,0.038683,0,0,
1,0.04352,1,1,1,1.6577,1,2,0.28067,0,0,
1,0.34012,1,1,1,1.68,1,1,0.09279,0,0,
1,1.0377,1,2,2,1.0094,1,1,0.039783,0,0,
1,0.62868,1,1,1,1.1286,1,1,0.089317,0,0,
1,0.13883,1,2,2,1.7639,1,2,0.11667,0,0,
1,NaN,1,0,2,1.1886,NaN,1,0.039291,0,1,
1,0.42974,1,2,1,1.5775,1,2,0.27431,0,1,
1,0.4945,1,2,1,1.6283,1,1,0.088458,0,1,
1,0.42897,1,2,1,1.3648,1,1,0.089956,0,1,
1,0.58257,1,1,2,1.6366,1,2,0.11673,0,1,
1,0.45635,1,2,1,1.8913,1,1,0.086886,0,1,
1,0.45702,1,2,1,1.2535,1,1,0.095439,0,1,
1,0.40124,1,2,1,1.2864,1,2,0.26743,0,1,
1,0.40867,1,2,1,1.1254,1,1,0.094175,0,1,
1,0.28738,1,2,1,1.5286,1,2,0.25779,0,1,
1,0.39792,1,2,1,1.8208,1,2,0.2694,0,1,
1,1.2696,1,1,2,1.2998,1,1,0.037492,0,1,
1,0.4945,1,1,2,1.7877,1,1,0.038534,0,1,
1,0.43835,1,1,2,1.437,1,2,0.12433,0,1,
1,0.04554,1,1,1,1.5505,0,2,0.2831,0,1,
1,0.83358,1,1,2,1.9861,1,1,0.037917,0,1,
1,0.43808,1,2,1,1.6898,1,1,0.090966,0,1,
1,0.40247,1,1,2,1.9701,1,1,0.03845,0,1,
1,0.35568,1,2,1,1.096,1,2,0.28468,0,1,
1,0.49316,1,2,1,1.8981,1,1,0.086329,0,1,
1,0.43072,1,2,2,1.0584,0,2,0.12208,0,1,
1,0.41221,1,2,1,1.1233,1,2,0.26177,0,1,
1,0.37658,1,2,1,1.6307,1,2,0.27874,0,1,
1,0.57193,1,1,2,1.3701,1,2,0.11452,0,1,
1,0.38424,1,2,1,1.3196,1,2,0.26276,0,1,
1,0.73753,1,1,2,1.7957,1,1,0.038103,0,1,
1,1.1041,1,1,2,1.3017,1,2,0.12477,0,1,
1,0.3219,1,1,2,1.6075,1,2,0.11651,0,1,
1,0.82105,1,1,2,1.462,1,1,0.039987,0,1,
1,0.62034,1,1,2,1.2926,1,2,0.1121,0,1,
1,0.25646,1,1,2,1.8324,1,2,0.11452,0,1,
1,0.46222,1,2,1,1.5705,1,2,0.28376,0,1,
1,0.82163,1,2,1,1.0705,1,1,0.090176,0,1,
1,0.38005,1,2,1,1.2663,1,2,0.25666,0,1,
1,0.99077,1,1,2,1.1709,1,1,0.03921,0,1,
1,0.28302,1,2,1,1.5603,1,2,0.28211,0,1,
1,0.41789,1,2,1,1.2021,1,1,0.094554,0,1,
1,0.67928,1,2,2,1.4924,0,2,0.11543,0,1,
1,0.4408,1,2,1,1.7294,1,2,0.26364,0,1,
1,1.4468,1,1,2,1.955,1,1,0.040901,0,1,
1,0.46214,1,2,1,1.7624,1,1,0.089944,0,1,
1,0.5674,1,2,2,1.0801,0,1,0.039401,0,1,
1,0.64081,1,1,2,1.9382,1,2,0.11391,0,1,
1,0.74131,1,1,1,1.9745,0,1,0.087028,0,1,
1,0.41199,1,2,1,1.6071,1,1,0.094935,0,1,
1,0.93839,1,1,2,1.9575,1,1,0.041667,0,1,
1,0.37011,1,1,2,1.3307,1,2,0.11662,0,1,
1,0.057743,1,1,1,1.9012,0,2,0.28219,0,1,
1,0.85957,1,1,2,1.0004,1,1,0.041482,0,1,
1,0.48888,1,1,2,1.4833,1,1,0.041195,0,1,
1,0.53733,1,2,1,1.1475,1,1,0.094219,0,1,
1,0.99835,1,1,2,1.315,1,2,0.12063,0,1,
1,0.5239,1,2,1,1.1714,1,1,0.087232,0,1,
1,0.59467,1,1,2,1.5929,1,2,0.11459,0,1,
1,0.56356,1,1,2,1.6576,1,1,0.039072,0,1,
1,0.58671,1,1,2,1.349,1,2,0.11182,0,1,
1,0.46931,1,2,1,1.0537,1,1,0.08821,0,1,
1,0.81634,1,1,2,1.0472,1,1,0.041607,0,1,
1,1.2937,1,1,2,1.0559,1,1,0.038529,0,1,
1,0.55124,1,2,1,1.0715,1,1,0.091343,0,1,
1,1.5371,1,1,2,1.0157,1,1,0.039878,0,1,
1,1.8349,1,1,1,1.9737,0,1,0.094877,0,1,
1,0.7086,1,1,2,1.7348,1,1,0.038901,0,1,
1,0.52942,1,1,1,1.7524,0,1,0.092624,0,1,
1,0.54595,1,2,1,1.0333,1,2,0.26268,0,1,
1,0.72098,1,2,2,1.1176,0,2,0.11231,0,1,
1,1.5195,1,1,2,1.2613,1,2,0.11978,0,1,
1,0.41309,1,2,1,1.8934,1,2,0.27772,0,1,
1,0.61096,1,1,2,1.9721,1,1,0.038459,0,1,
1,0.10484,1,1,2,1.9941,1,1,0.039695,0,1,
1,0.52678,1,1,2,1.3468,1,1,0.038545,0,1,
1,0.48462,1,2,1,1.2923,1,2,0.28163,0,1,
1,0.48014,1,2,1,1.1872,1,2,0.2676,0,1,
1,0.97261,1,1,2,1.7431,1,1,0.04028,0,1,
1,0.54519,1,1,2,1.718,1,2,0.11994,0,1,
1,0.28758,1,2,2,1.1889,0,1,0.041532,0,1,
1,1.0836,1,1,2,1.4339,1,2,0.11411,0,1,
1,0.51356,1,2,1,1.0456,1,2,0.27486,0,1,
1,0.68042,1,1,2,1.6555,1,2,0.11258,0,1,
1,0.35523,1,1,1,1.781,0,1,0.091056,0,1,
1,0.25968,1,1,2,1.8629,1,2,0.12291,0,1,
1,0.168,1,1,2,1.7854,1,2,0.11202,0,1,
1,0.45747,1,2,1,1.4335,1,2,0.26649,0,1,
1,1.1742,1,1,2,1.3478,1,2,0.12099,0,1,
1,0.50727,1,2,1,1.0554,1,2,0.28328,0,1,
1,0.27334,1,1,1,1.8194,0,1,0.090601,0,1,
1,0.62745,1,2,1,1.106,1,2,0.2877,0,1,
1,0.82379,1,2,1,1.0061,1,1,0.08985,0,1,
1,0.9747,1,1,2,1.275,1,1,0.038328,0,1,
1,0.53508,1,1,2,1.9428,1,2,0.11774,0,1,
1,0.15453,1,1,1,1.6743,0,1,0.087122,0,1,
1,0.64666,1,1,2,1.3857,1,2,0.11356,0,1,
1,0.44251,1,2,1,1.8569,1,2,0.26462,0,1,
1,0.41729,1,2,1,1.6748,1,1,0.093313,0,1,
1,0.37253,1,2,1,1.6081,1,2,0.27521,0,1,
1,0.53825,1,2,1,1.4394,1,1,0.095594,0,1,
1,0.56502,1,1,1,1.9613,0,1,0.093487,0,1,
1,0.46678,1,1,2,1.8229,1,2,0.1191,0,1,
1,0.50156,1,1,2,1.0105,1,1,0.039144,0,1,
1,0.39744,1,2,1,1.1416,1,2,0.26519,0,1,
1,0.34814,1,1,2,1.6039,0,2,0.11254,1,0,
1,1.067,1,2,1,1.387,0,1,0.094486,1,0,
1,0.52732,1,1,2,1.0655,0,2,0.11723,1,0,
1,0.3617,1,2,1,1.9986,0,2,0.2617,1,0,
1,0.59345,1,2,2,1.661,1,1,0.037185,1,0,
1,0.3957,1,2,2,1.2292,1,1,0.040066,1,0,
1,0.4358,1,2,2,1.0923,1,2,0.11635,1,0,
1,0.55652,1,1,1,1.241,1,1,0.089308,1,0,
1,0.38254,1,2,2,1.9026,1,2,0.11731,1,0,
1,0.55286,1,2,2,1.2173,1,1,0.039442,1,0,
1,0.40282,1,1,1,1.4795,1,1,0.08853,1,0,
1,0.44552,1,1,1,1.9092,1,2,0.2711,1,0,
1,1.1879,1,2,2,1.1938,1,1,0.037193,1,0,
1,0.61689,1,2,2,1.448,1,1,0.037908,1,0,
1,0.47318,1,1,1,1.6178,1,2,0.2657,1,0,
1,0.62469,1,1,1,1.5942,1,1,0.093177,1,0,
1,0.53891,1,2,2,1.6659,1,2,0.11921,1,0,
1,0.48119,1,1,1,1.2677,1,2,0.27814,1,0,
1,0.48302,1,2,1,1.4239,0,1,0.093825,1,0,
1,0.45958,1,2,2,1.7993,1,1,0.040997,1,0,
1,0.43017,1,1,1,1.9323,1,2,0.26007,1,0,
1,1.0088,1,2,2,1.4697,1,2,0.12026,1,0,
1,0.50905,1,1,1,1.3063,1,2,0.2798,1,0,
1,0.76531,1,1,1,1.4394,1,1,0.092724,1,0,
1,0.47816,1,1,1,1.3069,1,2,0.27508,1,0,
1,0.58201,1,1,1,1.275,1,2,0.2577,1,0,
1,0.64969,1,1,2,1.1387,0,2,0.11403,1,0,
1,0.56626,1,1,1,1.1665,1,2,0.26653,1,0,
1,0.91846,1,1,1,1.4939,1,1,0.092093,1,0,
1,0.56203,1,1,1,1.0866,1,2,0.26307,1,0,
1,0.1831,1,2,2,1.9268,1,1,0.037497,1,0,
1,0.53746,1,1,1,1.1485,1,2,0.28723,1,0,
1,0.53853,1,1,1,1.1605,1,1,0.087584,1,0,
1,0.68224,1,2,2,1.7177,1,2,0.12486,1,0,
1,0.42035,1,2,2,1.6749,1,1,0.039872,1,0,
1,0.37915,1,2,2,1.3585,1,1,0.038243,1,0,
1,0.55033,1,2,1,1.0905,0,1,0.090779,1,0,
1,1.1307,1,2,2,1.0082,1,1,0.040346,1,0,
1,0.55031,1,1,1,1.3728,1,1,0.088121,1,0,
1,0.64158,1,1,1,1.7883,1,1,0.08666,1,0,
1,0.68103,1,1,1,1.4473,1,2,0.27333,1,0,
1,0.62259,1,1,2,1.0996,0,1,0.038115,1,0,
1,0.87069,1,1,1,1.8058,1,1,0.088653,1,0,
1,0.43233,1,1,1,1.6595,1,2,0.28699,1,0,
1,0.76494,1,2,2,1.4524,1,2,0.11554,1,0,
1,0.54451,1,1,1,1.5334,1,1,0.095367,1,0,
1,0.42148,1,1,1,1.5267,1,2,0.26899,1,0,
1,0.69219,1,1,2,1.6297,0,1,0.037211,1,0,
1,0.94012,1,2,2,1.6466,1,1,0.038517,1,0,
1,0.6443,1,2,2,1.1918,1,2,0.11351,1,0,
1,1.5317,1,2,1,1.8017,0,1,0.095894,1,0,
1,1.0966,1,2,2,1.1966,1,1,0.039144,1,0,
1,0.46555,1,1,1,1.4113,1,2,0.27319,1,0,
1,0.41964,1,1,1,1.2357,1,2,0.26444,1,0,
1,0.65674,1,2,2,1.2722,1,2,0.12342,1,0,
1,1.0677,1,2,2,1.0087,1,1,0.03761,1,0,
1,0.50547,1,1,1,1.9283,1,2,0.28209,1,0,
1,0.64901,1,2,2,1.5202,1,2,0.11712,1,0,
1,0.33353,1,1,1,1.4641,1,2,0.28525,1,0,
1,0.39497,1,1,1,1.5235,1,2,0.27265,1,0,
1,0.48404,1,2,2,1.3368,1,1,0.041086,1,0,
1,0.61094,1,2,1,1.3324,0,1,0.089069,1,0,
1,0.46873,1,2,2,1.9883,1,1,0.038919,1,0,
1,0.40595,1,2,2,1.4737,1,2,0.11945,1,0,
1,0.29747,1,2,1,1.7469,0,1,0.094987,1,0,
1,0.47449,1,2,2,1.67,1,1,0.03774,1,0,
1,0.12224,1,2,1,1.7956,0,1,0.08594,1,0,
1,0.53492,1,1,1,1.2725,1,2,0.26869,1,0,
1,0.35946,1,1,1,1.2839,1,2,0.27478,1,0,
1,0.509,1,2,2,1.7173,1,1,0.041318,1,0,
1,0.68009,1,2,2,1.1846,1,2,0.11534,1,0,
1,0.48513,1,1,1,1.8337,1,1,0.091062,1,0,
1,0.59563,1,1,1,1.1697,1,1,0.093577,1,0,
1,0.47964,1,2,2,1.9533,1,2,0.11578,1,0,
1,0.46235,1,2,2,1.7225,1,2,0.11273,1,0,
1,0.53964,1,1,1,1.1342,1,1,0.089985,1,0,
1,0.20625,1,2,2,1.8531,1,2,0.11187,1,0,
1,0.069709,1,2,2,1.9317,1,1,0.040172,1,0,
1,0.50194,1,1,1,1.5642,1,2,0.25989,1,0,
1,0.8841,1,2,2,1.3988,1,2,0.11409,1,0,
1,0.46632,1,2,2,1.4416,1,2,0.11852,1,0,
1,0.3318,1,2,2,1.7017,1,2,0.11985,1,0,
1,0.64761,1,1,1,1.26,1,1,0.089282,1,0,
1,0.62912,1,2,2,1.0285,1,2,0.11956,1,0,
1,0.49029,1,2,2,1.948,1,1,0.040971,1,0,
1,0.73973,1,1,1,1.9962,1,1,0.092722,1,0,
1,0.45444,1,2,2,1.7795,1,1,0.038886,1,0,
1,0.25429,1,2,2,1.9894,1,2,0.11909,1,0,
1,0.43766,1,1,1,1.4876,1,1,0.088019,1,0,
1,0.4516,1,1,1,1.128,1,2,0.27898,1,0,
1,0.38938,1,1,1,1.4644,1,2,0.26692,1,0,
1,0.53742,1,1,1,1.7426,1,1,0.086301,1,0,
1,0.57518,1,2,2,1.6734,1,2,0.11545,1,0,
1,0.425,1,2,1,1.874,0,1,0.088533,1,0,
1,0.49161,1,1,2,1.7583,0,1,0.037266,1,0,
1,0.73192,1,1,2,1.6172,0,2,0.11378,1,0,
1,0.77587,1,2,2,1.2748,1,1,0.041039,1,0,
1,0.6296,1,2,2,1.3364,1,1,0.040082,1,0,
1,0.47422,1,2,2,1.8357,1,2,0.12306,1,0,
1,0.47143,1,1,1,1.3859,1,2,0.2647,1,0,
1,NaN,1,0,1,1.1397,NaN,1,0.086938,1,1,
1,1.0141,1,2,1,1.2207,1,1,0.095295,1,1,
1,1.8494,1,1,2,1.8175,1,1,0.037168,1,1,
1,0.6264,1,2,1,1.3782,1,2,0.26987,1,1,
1,0.72961,1,2,1,1.6655,1,2,0.2569,1,1,
1,0.52585,1,1,2,1.9358,1,1,0.038184,1,1,
1,0.63152,1,1,2,1.4265,1,2,0.12096,1,1,
1,0.356,1,2,1,1.6052,1,2,0.27792,1,1,
1,0.40175,1,2,1,1.9696,1,1,0.088174,1,1,
1,0.43435,1,2,1,1.3647,1,2,0.2664,1,1,
1,0.55472,1,1,2,1.6644,1,1,0.037568,1,1,
1,0.507,1,1,2,1.3148,1,2,0.11204,1,1,
1,0.48296,1,2,1,1.8857,1,2,0.28001,1,1,
1,0.4665,1,2,1,1.2955,1,2,0.26635,1,1,
1,1.6388,1,2,2,1.2954,0,2,0.1184,1,1,
1,0.64219,1,1,2,1.9071,1,2,0.12441,1,1,
1,0.49422,1,2,1,1.4929,1,1,0.092371,1,1,
1,0.73344,1,1,2,1.2071,1,2,0.11774,1,1,
1,0.62379,1,1,2,1.0258,1,1,0.040052,1,1,
1,0.57724,1,1,2,1.1702,1,1,0.040127,1,1,
1,0.47248,1,2,1,1.3023,1,2,0.26346,1,1,
1,0.54262,1,1,1,1.9614,0,1,0.093828,1,1,
1,0.48132,1,2,1,1.7837,1,1,0.09062,1,1,
1,0.62789,1,1,2,1.6733,1,2,0.11721,1,1,
1,0.51584,1,2,1,1.8407,1,1,0.092798,1,1,
1,0.50534,1,2,1,1.4209,1,1,0.091169,1,1,
1,0.51035,1,1,2,1.7037,1,1,0.038274,1,1,
1,0.51597,1,1,2,1.4813,1,1,0.03749,1,1,
1,0.24474,1,1,1,1.8206,0,1,0.091525,1,1,
1,0.37498,1,2,1,1.4374,1,1,0.092427,1,1,
1,0.095665,1,1,1,1.86,0,1,0.091514,1,1,
1,0.43173,1,2,1,1.0089,1,1,0.090943,1,1,
1,0.095647,1,1,1,1.996,0,2,0.27092,1,1,
1,NaN,1,0,2,1.2752,NaN,2,0.11574,1,1,
1,0.16901,1,1,2,1.0335,1,1,0.039057,1,1,
1,0.28367,1,2,1,1.1521,1,2,0.28019,1,1,
1,0.33898,1,2,1,1.4796,1,2,0.28776,1,1,
1,0.43003,1,1,1,1.8888,0,2,0.26452,1,1,
1,0.72854,1,1,2,1.2834,1,1,0.040715,1,1,
1,0.46325,1,2,1,1.7841,1,2,0.26058,1,1,
1,0.95577,1,1,2,1.1704,1,2,0.11196,1,1,
1,0.46442,1,1,2,1.7313,1,2,0.11748,1,1,
1,0.36438,1,2,1,1.2466,1,2,0.27375,1,1,
1,0.85255,1,2,1,1.0818,1,1,0.087827,1,1,
1,0.53073,1,2,2,1.8529,0,1,0.037791,1,1,
1,0.42814,1,2,1,1.6866,1,1,0.092457,1,1,
1,0.65404,1,1,2,1.9581,1,2,0.11614,1,1,
1,1.9846,1,1,2,1.9851,1,1,0.039416,1,1,
1,1.809,1,1,2,1.5347,1,2,0.12078,1,1,
1,1.2148,1,1,2,1.906,1,2,0.11941,1,1,
1,0.11187,1,1,1,1.4766,0,2,0.27196,1,1,
1,1.7575,1,1,2,1.8897,1,2,0.12193,1,1,
1,0.66687,1,1,2,1.0238,1,2,0.12065,1,1,
1,0.8716,1,1,2,1.1287,1,2,0.11568,1,1,
1,0.60118,1,1,2,1.7406,1,1,0.040904,1,1,
1,0.42245,1,1,2,1.391,1,1,0.040105,1,1,
1,0.445,1,2,1,1.3936,1,1,0.091504,1,1,
1,0.54062,1,2,1,1.6018,1,1,0.085712,1,1,
1,0.48725,1,2,1,1.0239,1,2,0.28252,1,1,
1,0.40822,1,2,1,1.3877,1,1,0.086653,1,1,
1,0.69553,1,1,2,1.0567,1,1,0.040943,1,1,
1,0.59741,1,1,2,1.6896,1,2,0.11592,1,1,
1,0.62445,1,1,2,1.5204,1,1,0.03905,1,1,
1,0.40693,1,2,1,1.0761,1,2,0.28112,1,1,
1,0.52086,1,2,1,1.4063,1,1,0.086929,1,1,
1,0.83857,1,1,2,1.4302,1,2,0.11959,1,1,
1,0.51073,1,1,2,1.6593,1,2,0.12411,1,1,
1,0.35815,1,2,1,1.2184,1,2,0.27608,1,1,
1,0.38479,1,2,1,1.0811,1,2,0.25799,1,1,
1,0.46912,1,1,2,1.4677,1,1,0.040278,1,1,
1,0.52061,1,1,2,1.7287,1,1,0.038283,1,1,
1,0.42706,1,2,1,1.614,1,2,0.27781,1,1,
1,0.67914,1,1,2,1.9006,1,2,0.11626,1,1,
1,0.47632,1,1,2,1.2528,1,2,0.11868,1,1,
1,0.49146,1,1,2,1.2201,1,1,0.03813,1,1,
1,0.52626,1,1,2,1.2358,1,1,0.04125,1,1,
1,0.56168,1,1,2,1.8101,1,1,0.0388,1,1,
1,0.416,1,1,2,1.7024,1,1,0.037506,1,1,
1,0.39028,1,1,2,1.8785,1,1,0.037299,1,1,
1,0.39235,1,2,1,1.711,1,2,0.27577,1,1,
1,1.1248,1,1,2,1.6611,1,1,0.0414,1,1,
1,0.43148,1,2,1,1.4396,1,1,0.088733,1,1,
1,0.65299,1,1,2,1.5628,1,2,0.12149,1,1,
1,0.77256,1,1,2,1.9903,1,2,0.11527,1,1,
1,0.45055,1,2,1,1.9573,1,1,0.086757,1,1,
1,0.89719,1,1,2,1.3368,1,2,0.1183,1,1,
1,0.66479,1,1,2,1.1555,1,2,0.11659,1,1,
1,0.53595,1,2,1,1.4171,1,1,0.095723,1,1,
1,0.49068,1,2,1,1.5545,1,2,0.26534,1,1,
1,0.94108,1,1,2,1.0298,1,1,0.03979,1,1,
1,0.28143,1,1,1,1.8667,0,1,0.091339,1,1,
1,0.72104,1,1,2,1.8944,1,2,0.11969,1,1,
1,0.32584,1,2,1,1.4972,1,2,0.27369,1,1,
1,0.63418,1,2,1,1.2093,1,1,0.088324,1,1,
1,0.35589,1,2,1,1.7216,1,2,0.2611,1,1,
1,0.041687,1,2,1,1.6997,1,2,0.27916,1,1,
1,0.34486,1,2,1,1.4607,1,1,0.085915,1,1,
1,0.35908,1,2,1,1.1706,1,2,0.28138,1,1,
1,0.45523,1,2,1,1.7944,1,1,0.08962,1,1,
1,0.43607,1,1,2,1.8885,1,1,0.040894,1,1,
1,0.39406,2,1,1,1.5594,1,1,0.091991,0,0,
1,0.07365,2,2,1,1.6265,0,2,0.26535,0,0,
1,1.1649,2,2,2,1.0301,1,1,0.038436,0,0,
1,0.54303,2,1,1,1.6423,1,2,0.26393,0,0,
1,0.42855,2,1,1,1.8382,1,2,0.27824,0,0,
1,0.30616,2,1,1,1.3951,1,2,0.2805,0,0,
1,0.34047,2,1,1,1.4373,1,1,0.09402,0,0,
1,0.63014,2,2,2,1.0849,1,2,0.12234,0,0,
1,0.072158,2,2,2,1.5814,1,1,0.038269,0,0,
1,0.089752,2,2,1,1.8717,0,2,0.28134,0,0,
1,0.45046,2,1,1,1.2069,1,1,0.091954,0,0,
1,0.4225,2,1,1,1.0946,1,2,0.2635,0,0,
1,0.67696,2,2,2,1.188,1,2,0.1165,0,0,
1,0.16947,2,2,2,1.6678,1,2,0.11747,0,0,
1,0.12302,2,2,2,1.7324,1,2,0.11811,0,0,
1,1.2333,2,2,2,1.631,1,1,0.039553,0,0,
1,0.093426,2,2,1,1.4682,0,2,0.26697,0,0,
1,0.53833,2,1,1,1.3144,1,1,0.088442,0,0,
1,0.17205,2,2,2,1.6415,1,1,0.040302,0,0,
1,0.64198,2,2,2,1.562,1,2,0.12416,0,0,
1,0.3034,2,1,1,1.6637,1,2,0.27474,0,0,
1,1.2222,2,2,1,1.1249,0,1,0.091567,0,0,
1,1.1389,2,2,2,1.674,1,2,0.1214,0,0,
1,0.58687,2,2,2,1.6803,1,2,0.11639,0,0,
1,0.068794,2,2,2,1.9301,1,2,0.11747,0,0,
1,1.3157,2,2,2,1.8288,1,2,0.11823,0,0,
1,0.61111,2,1,1,1.1781,1,1,0.095175,0,0,
1,0.3999,2,1,1,1.9492,1,2,0.27024,0,0,
1,1.1772,2,1,2,1.1996,0,2,0.11999,0,0,
1,0.66691,2,2,2,1.2177,1,1,0.039185,0,0,
1,0.48449,2,1,1,1.0085,1,1,0.091154,0,0,
1,0.42497,2,1,1,1.3006,1,2,0.25779,0,0,
1,0.32959,2,1,1,1.2745,1,2,0.2814,0,0,
1,0.80137,2,2,2,1.5864,1,1,0.040154,0,0,
1,0.7361,2,2,2,1.3966,1,1,0.038034,0,0,
1,0.46015,2,2,2,1.1864,1,2,0.11169,0,0,
1,0.4439,2,2,2,1.3928,1,1,0.04058,0,0,
1,0.3381,2,2,2,1.1546,1,2,0.11903,0,0,
1,0.57824,2,1,1,1.8323,1,1,0.092214,0,0,
1,0.24915,2,2,1,1.1498,0,2,0.27602,0,0,
1,0.077049,2,1,2,1.6795,0,1,0.040446,0,0,
1,1.2233,2,2,2,1.7501,1,1,0.041164,0,0,
1,0.52903,2,2,2,1.0149,1,1,0.040128,0,0,
1,0.98844,2,2,2,1.1422,1,2,0.11306,0,0,
1,1.0208,2,2,2,1.0307,1,1,0.04035,0,0,
1,1.6206,2,2,2,1.8087,1,2,0.11739,0,0,
1,0.73848,2,2,2,1.0471,1,1,0.040013,0,0,
1,0.056824,2,2,2,1.6662,1,2,0.12015,0,0,
1,0.371,2,2,2,1.456,1,2,0.12056,0,0,
1,0.58382,2,2,2,1.803,1,1,0.037419,0,0,
1,0.12095,2,2,2,1.3584,1,1,0.038137,0,0,
1,0.37023,2,2,1,1.0253,0,1,0.087194,0,0,
1,0.64114,2,2,2,1.2186,1,2,0.12408,0,0,
1,0.20396,2,2,2,1.7109,1,1,0.039438,0,0,
1,0.066118,2,2,1,1.5489,0,2,0.27725,0,0,
1,0.64762,2,2,1,1.8697,0,1,0.092358,0,0,
1,0.36773,2,1,1,1.7388,1,2,0.25899,0,0,
1,0.68608,2,2,2,1.1032,1,2,0.11443,0,0,
1,0.62646,2,1,1,1.9714,1,2,0.2651,0,0,
1,1.3363,2,2,2,1.7387,1,1,0.04129,0,0,
1,0.39088,2,1,1,1.0139,1,1,0.087809,0,0,
1,0.46951,2,1,1,1.6791,1,2,0.26402,0,0,
1,0.33002,2,2,2,1.4855,1,2,0.12053,0,0,
1,0.51306,2,1,2,1.0347,0,2,0.12014,0,0,
1,0.22678,2,2,2,1.1144,1,2,0.12091,0,0,
1,0.62299,2,2,2,1.0766,1,1,0.040927,0,0,
1,1.43,2,2,2,1.6078,1,1,0.040413,0,0,
1,0.65641,2,1,1,1.2335,1,1,0.085715,0,0,
1,0.34731,2,2,2,1.142,1,1,0.03975,0,0,
1,0.088296,2,2,2,1.5302,1,2,0.12397,0,0,
1,NaN,2,0,2,1.9303,NaN,1,0.037561,0,0,
1,0.42575,2,1,1,1.6169,1,2,0.27349,0,0,
1,NaN,2,0,1,1.6899,NaN,1,0.095198,0,0,
1,1.1566,2,2,1,1.2344,0,1,0.08751,0,0,
1,0.53604,2,2,2,1.2068,1,2,0.11845,0,0,
1,0.45602,2,2,1,1.0374,0,1,0.086781,0,0,
1,0.12074,2,2,1,1.6634,0,2,0.27967,0,0,
1,0.33614,2,1,1,1.5073,1,2,0.26604,0,0,
1,0.46587,2,2,2,1.4858,1,2,0.11393,0,0,
1,0.049292,2,2,2,1.8617,1,2,0.12482,0,0,
1,0.41347,2,2,2,1.9655,1,1,0.040346,0,0,
1,0.14834,2,2,1,1.7597,0,1,0.094052,0,0,
1,0.51806,2,1,1,1.2467,1,1,0.092522,0,0,
1,0.20671,2,1,2,1.6763,0,1,0.040237,0,0,
1,0.30765,2,2,2,1.7593,1,1,0.039509,0,0,
1,0.17115,2,2,1,1.5862,0,1,0.087403,0,0,
1,0.34687,2,1,1,1.8224,1,2,0.27156,0,0,
1,0.47548,2,2,1,1.9268,0,1,0.091214,0,0,
1,0.4001,2,1,1,1.6376,1,2,0.28224,0,0,
1,0.44505,2,1,1,1.0189,1,2,0.26263,0,0,
1,0.52783,2,2,2,1.1843,1,1,0.039495,0,0,
1,0.50266,2,1,1,1.0267,1,1,0.093859,0,0,
1,0.48057,2,2,1,1.935,0,1,0.089093,0,0,
1,0.67928,2,1,1,1.4845,1,1,0.091091,0,0,
1,0.11683,2,2,1,1.7948,0,2,0.27866,0,0,
1,0.47535,2,1,1,1.4568,1,2,0.26262,0,0,
1,0.93346,2,2,1,1.4942,0,1,0.092103,0,0,
1,0.31263,2,1,1,1.4257,1,2,0.25657,0,0,
1,0.15533,2,2,1,1.8918,0,1,0.090729,0,0,
1,0.68313,2,1,1,1.8743,1,1,0.091322,0,0,
1,1.3465,2,2,1,1.6962,0,1,0.087239,0,1,
1,0.57215,2,1,1,1.8814,1,2,0.28585,0,1,
1,0.90967,2,2,2,1.0247,1,2,0.11194,0,1,
1,0.52143,2,2,2,1.3412,1,1,0.041127,0,1,
1,0.44388,2,2,2,1.4214,1,2,0.11841,0,1,
1,0.48036,2,2,2,1.08,1,1,0.040791,0,1,
1,0.40129,2,2,1,1.0794,0,1,0.090046,0,1,
1,0.54511,2,2,2,1.0724,1,2,0.11604,0,1,
1,0.77768,2,1,1,1.9003,1,1,0.093313,0,1,
1,0.75985,2,1,1,1.9693,1,2,0.26743,0,1,
1,0.80584,2,1,1,1.3913,1,2,0.27355,0,1,
1,0.45523,2,1,1,1.3136,1,2,0.28421,0,1,
1,0.081411,2,1,1,1.5533,1,1,0.094209,0,1,
1,0.079151,2,1,1,1.792,1,2,0.26388,0,1,
1,0.65512,2,1,2,1.7983,0,1,0.039078,0,1,
1,0.51997,2,1,1,1.8633,1,2,0.28225,0,1,
1,0.42427,2,1,1,1.798,1,2,0.26112,0,1,
1,0.49334,2,1,1,1.0064,1,2,0.27997,0,1,
1,0.54376,2,2,2,1.9199,1,1,0.041113,0,1,
1,0.5507,2,2,2,1.018,1,1,0.039379,0,1,
1,0.50095,2,2,2,1.0294,1,2,0.11907,0,1,
1,0.80436,2,1,1,1.7115,1,2,0.283,0,1,
1,0.55907,2,2,2,1.5384,1,1,0.041628,0,1,
1,1.5875,2,2,2,1.5246,1,1,0.040707,0,1,
1,0.50537,2,2,2,1.5022,1,2,0.11609,0,1,
1,0.61224,2,1,1,1.0657,1,2,0.27183,0,1,
1,0.61482,2,1,2,1.23,0,2,0.11482,0,1,
1,0.62561,2,2,2,1.117,1,1,0.039414,0,1,
1,0.537,2,2,1,1.9898,0,1,0.086301,0,1,
1,1.4041,2,2,2,1.0705,1,2,0.11222,0,1,
1,0.50357,2,1,1,1.06,1,2,0.27603,0,1,
1,0.48504,2,2,2,1.6616,1,2,0.11971,0,1,
1,0.54103,2,1,1,1.3441,1,1,0.08633,0,1,
1,0.55063,2,2,2,1.1285,1,1,0.039869,0,1,
1,0.65127,2,2,2,1.6371,1,2,0.11872,0,1,
1,0.53219,2,2,2,1.7465,1,2,0.12305,0,1,
1,0.59928,2,1,1,1.8053,1,1,0.092092,0,1,
1,0.50704,2,2,2,1.269,1,2,0.11504,0,1,
1,0.62996,2,1,1,1.434,1,1,0.086581,0,1,
1,0.69965,2,1,2,1.4018,0,1,0.037427,0,1,
1,0.68112,2,1,1,1.6081,1,1,0.091871,0,1,
1,0.56638,2,1,1,1.7701,1,2,0.27807,0,1,
1,1.2056,2,1,2,1.9411,0,1,0.038362,0,1,
1,0.65553,2,2,2,1.1315,1,2,0.11705,0,1,
1,0.43292,2,2,2,1.2557,1,2,0.1163,0,1,
1,0.53262,2,2,2,1.3783,1,1,0.03752,0,1,
1,0.14365,2,2,2,1.9937,1,1,0.037466,0,1,
1,0.51212,2,2,2,1.341,1,1,0.037688,0,1,
1,0.60301,2,1,1,1.8996,1,2,0.2774,0,1,
1,0.82271,2,1,1,1.2375,1,1,0.087707,0,1,
1,0.43813,2,1,1,1.22,1,1,0.087892,0,1,
1,1.911,2,2,1,1.9911,0,1,0.085609,0,1,
1,1.1293,2,1,1,1.9511,1,1,0.092991,0,1,
1,0.52904,2,1,1,1.6382,1,2,0.27369,0,1,
1,0.50119,2,1,1,1.5041,1,1,0.091135,0,1,
1,0.6181,2,1,2,1.3581,0,1,0.040482,0,1,
1,0.53049,2,1,1,1.7685,1,2,0.28212,0,1,
1,1.0015,2,1,2,1.7844,0,2,0.11667,0,1,
1,0.77182,2,1,1,1.0289,1,1,0.086873,0,1,
1,0.85571,2,2,2,1.0524,1,2,0.11404,0,1,
1,0.54693,2,1,1,1.3234,1,2,0.27875,0,1,
1,0.44718,2,2,2,1.7997,1,2,0.12044,0,1,
1,0.38522,2,2,2,1.6302,1,1,0.037424,0,1,
1,0.46733,2,1,1,1.9828,1,2,0.26818,0,1,
1,0.76701,2,2,2,1.1582,1,1,0.039329,0,1,
1,0.62645,2,1,1,1.6167,1,2,0.28049,0,1,
1,0.50236,2,1,1,1.3087,1,2,0.26097,0,1,
1,0.72321,2,2,2,1.0851,1,1,0.039303,0,1,
1,0.81892,2,1,1,1.8768,1,1,0.086234,0,1,
1,0.50163,2,1,1,1.5907,1,2,0.28092,0,1,
1,0.48197,2,1,1,1.3031,1,2,0.26847,0,1,
1,0.52428,2,1,1,1.1681,1,1,0.087881,0,1,
1,0.43622,2,2,2,1.3399,1,2,0.11254,0,1,
1,0.8003,2,1,1,1.0674,1,1,0.086305,0,1,
1,1.0353,2,1,2,1.6535,0,2,0.12406,0,1,
1,0.66737,2,1,1,1.2443,1,1,0.087563,0,1,
1,0.82268,2,2,2,1.7579,1,1,0.041494,0,1,
1,0.55149,2,2,2,1.299,1,1,0.038649,0,1,
1,0.44339,2,2,2,1.4188,1,2,0.12453,0,1,
1,0.45516,2,2,2,1.0558,1,1,0.038664,0,1,
1,0.32101,2,2,1,1.0309,0,1,0.08615,0,1,
1,0.38659,2,1,1,1.1866,1,1,0.091772,0,1,
1,0.34018,2,1,1,1.2709,1,1,0.091173,0,1,
1,0.4071,2,1,2,1.0662,0,1,0.041255,0,1,
1,0.51022,2,1,1,1.3335,1,2,0.26258,0,1,
1,0.78851,2,2,2,1.0499,1,2,0.12208,0,1,
1,0.62405,2,1,1,1.1013,1,1,0.089017,0,1,
1,0.56494,2,1,1,1.0719,1,2,0.28696,0,1,
1,0.77413,2,2,2,1.9045,1,1,0.040922,0,1,
1,0.78197,2,1,1,1.3118,1,1,0.092827,0,1,
1,0.61916,2,1,1,1.5918,1,2,0.263,0,1,
1,0.40521,2,2,2,1.3776,1,2,0.1117,0,1,
1,0.26088,2,2,2,1.9516,1,2,0.11423,0,1,
1,0.54442,2,2,2,1.7424,1,1,0.039535,0,1,
1,0.57598,2,1,1,1.8871,1,2,0.25979,0,1,
1,1.4364,2,2,2,1.5989,1,1,0.041006,0,1,
1,0.23026,2,2,2,1.6896,1,2,0.12383,0,1,
1,0.35113,2,2,2,1.3911,1,2,0.11587,0,1,
1,1.1306,2,2,2,1.2233,1,2,0.11769,0,1,
1,0.68122,2,2,1,1.1313,0,1,0.085552,0,1,
1,0.057089,2,1,1,1.6171,0,1,0.094652,1,0,
1,0.43918,2,1,1,1.1479,0,1,0.086911,1,0,
1,0.5812,2,2,1,1.029,1,2,0.28168,1,0,
1,0.60662,2,1,2,1.5725,1,1,0.038265,1,0,
1,0.49655,2,1,1,1.03,0,1,0.085764,1,0,
1,1.1939,2,2,1,1.7115,1,1,0.090912,1,0,
1,0.91017,2,1,1,1.214,0,1,0.095242,1,0,
1,0.77023,2,2,1,1.2552,1,1,0.093444,1,0,
1,0.5254,2,1,2,1.9586,1,1,0.03894,1,0,
1,0.53666,2,2,1,1.1819,1,2,0.27867,1,0,
1,1.1105,2,1,2,1.7985,1,2,0.11785,1,0,
1,0.91099,2,2,1,1.04,1,1,0.08998,1,0,
1,0.55374,2,2,2,1.3092,0,1,0.041426,1,0,
1,1.0856,2,1,2,1.9671,1,1,0.039728,1,0,
1,0.71103,2,2,1,1.267,1,2,0.28079,1,0,
1,0.56207,2,2,1,1.1219,1,2,0.27858,1,0,
1,0.70226,2,1,2,1.6074,1,2,0.11334,1,0,
1,0.47032,2,2,1,1.6454,1,2,0.27788,1,0,
1,0.69738,2,1,2,1.8744,1,2,0.11667,1,0,
1,0.051322,2,2,1,1.8973,1,2,0.26037,1,0,
1,0.75591,2,1,1,1.0532,0,1,0.092073,1,0,
1,1.4231,2,2,2,1.7595,0,1,0.039358,1,0,
1,1.4177,2,1,2,1.8589,1,2,0.11232,1,0,
1,0.56786,2,1,2,1.4817,1,1,0.039476,1,0,
1,0.3743,2,1,2,1.0751,1,2,0.11561,1,0,
1,0.52677,2,2,1,1.0907,1,2,0.28311,1,0,
1,0.7953,2,2,1,1.2002,1,2,0.25684,1,0,
1,0.38256,2,1,2,1.7783,1,1,0.038044,1,0,
1,0.40965,2,1,1,1.4073,0,1,0.094649,1,0,
1,0.72809,2,1,1,1.827,0,1,0.087698,1,0,
1,1.0956,2,2,2,1.148,0,1,0.038551,1,0,
1,0.65035,2,2,1,1.7329,1,2,0.26694,1,0,
1,0.69751,2,2,1,1.1499,1,1,0.093776,1,0,
1,0.20112,2,1,1,1.8384,0,2,0.27401,1,0,
1,0.42992,2,2,1,1.5454,1,2,0.28175,1,0,
1,0.097676,2,1,1,1.9612,0,2,0.25913,1,0,
1,0.85057,2,2,1,1.0755,1,1,0.087437,1,0,
1,0.54287,2,1,2,1.9338,1,1,0.03996,1,0,
1,0.59286,2,1,2,1.3594,1,1,0.037441,1,0,
1,0.67914,2,2,1,1.0669,1,1,0.093161,1,0,
1,0.97343,2,2,2,1.9659,0,2,0.11952,1,0,
1,0.68711,2,2,1,1.6495,1,1,0.093758,1,0,
1,0.73293,2,2,2,1.4206,0,1,0.03786,1,0,
1,0.63745,2,2,1,1.5964,1,2,0.27932,1,0,
1,0.70509,2,1,2,1.3471,1,2,0.12165,1,0,
1,0.48832,2,2,1,1.2176,1,2,0.28397,1,0,
1,0.8707,2,1,2,1.0378,1,1,0.03905,1,0,
1,0.65262,2,2,1,1.1534,1,2,0.26217,1,0,
1,0.1967,2,1,2,1.3734,1,1,0.038486,1,0,
1,0.083893,2,1,1,1.8768,0,1,0.088741,1,0,
1,0.65768,2,1,2,1.4411,1,2,0.11732,1,0,
1,0.37356,2,2,2,1.6378,0,2,0.11624,1,0,
1,0.7975,2,2,1,1.3878,1,2,0.27573,1,0,
1,0.10152,2,1,2,1.8372,1,1,0.041409,1,0,
1,1.3435,2,1,2,1.7663,1,1,0.038415,1,0,
1,0.46681,2,2,1,1.1256,1,2,0.2639,1,0,
1,0.73594,2,1,2,1.0927,1,2,0.12397,1,0,
1,0.43902,2,1,2,1.6603,1,2,0.12405,1,0,
1,0.13695,2,1,2,1.3777,1,1,0.038517,1,0,
1,0.65229,2,1,2,1.1078,1,2,0.11249,1,0,
1,0.51793,2,1,2,1.6238,1,1,0.040663,1,0,
1,0.1224,2,1,1,1.6216,0,2,0.26046,1,0,
1,0.65586,2,1,2,1.9116,1,2,0.11758,1,0,
1,0.60658,2,1,1,1.6061,0,1,0.089969,1,0,
1,0.73014,2,1,1,1.4853,0,1,0.091693,1,0,
1,0.48844,2,2,2,1.5767,0,1,0.037714,1,0,
1,0.71304,2,1,2,1.9821,1,2,0.11946,1,0,
1,0.51259,2,1,1,1.5186,0,1,0.086835,1,0,
1,1.1667,2,2,2,1.3487,0,2,0.11299,1,0,
1,0.63194,2,2,1,1.9829,1,2,0.26994,1,0,
1,0.74971,2,1,2,1.992,1,2,0.11504,1,0,
1,0.69557,2,1,2,1.8962,1,1,0.041434,1,0,
1,0.56976,2,1,1,1.7416,0,1,0.090765,1,0,
1,0.74078,2,2,2,1.6647,0,1,0.039122,1,0,
1,0.17727,2,1,2,1.7334,1,2,0.11553,1,0,
1,0.4673,2,1,2,1.4359,1,1,0.039231,1,0,
1,0.28831,2,1,1,1.3996,0,1,0.093553,1,0,
1,0.82236,2,2,2,1.2179,0,1,0.037896,1,0,
1,0.80014,2,1,2,1.8816,1,1,0.037263,1,0,
1,1.043,2,1,2,1.9421,1,1,0.040327,1,0,
1,0.098887,2,1,2,1.949,1,1,0.039848,1,0,
1,0.45475,2,1,2,1.1064,1,2,0.11694,1,0,
1,0.63849,2,2,1,1.058,1,2,0.28507,1,0,
1,0.76131,2,1,2,1.1637,1,2,0.1178,1,0,
1,0.63366,2,2,1,1.5275,1,1,0.095038,1,0,
1,0.68107,2,2,1,1.0697,1,2,0.27168,1,0,
1,0.72035,2,1,2,1.0101,1,2,0.12407,1,0,
1,0.84333,2,2,1,1.0917,1,1,0.09274,1,0,
1,0.53205,2,1,2,1.6074,1,2,0.12078,1,0,
1,0.50786,2,1,2,1.0561,1,2,0.11156,1,0,
1,0.58198,2,2,1,1.6581,1,1,0.091012,1,0,
1,0.54746,2,1,2,1.5758,1,2,0.11693,1,0,
1,0.54477,2,2,1,1.0738,1,2,0.27581,1,0,
1,0.49672,2,2,1,1.2416,1,2,0.27314,1,0,
1,0.90785,2,2,1,1.3512,1,1,0.087677,1,0,
1,0.72688,2,1,1,1.1267,0,1,0.091136,1,0,
1,0.48957,2,1,2,1.7394,1,2,0.12314,1,0,
1,1.4901,2,1,2,1.4457,1,2,0.11156,1,0,
1,0.69313,2,2,1,1.0176,1,2,0.26029,1,0,
1,0.59426,2,2,1,1.6817,1,2,0.28052,1,0,
1,0.59526,2,2,1,1.4881,1,2,0.27582,1,1,
1,0.71897,2,1,2,1.9706,1,2,0.12235,1,1,
1,0.51088,2,1,2,1.5681,1,1,0.038925,1,1,
1,0.546,2,1,2,1.274,1,1,0.038568,1,1,
1,0.6296,2,2,1,1.1291,1,1,0.089336,1,1,
1,0.51588,2,1,2,1.1552,1,2,0.12112,1,1,
1,0.45013,2,2,1,1.2688,1,1,0.087446,1,1,
1,0.57889,2,1,2,1.4339,1,1,0.039324,1,1,
1,0.43823,2,1,2,1.3959,1,1,0.037687,1,1,
1,0.3766,2,2,1,1.4252,1,2,0.26074,1,1,
1,0.30273,2,2,1,1.6144,1,2,0.28613,1,1,
1,0.62217,2,1,2,1.4468,1,1,0.039967,1,1,
1,0.47771,2,2,1,1.012,1,1,0.089954,1,1,
1,0.45064,2,2,1,1.0343,1,2,0.27835,1,1,
1,0.74742,2,1,2,1.3988,1,1,0.039504,1,1,
1,0.23048,2,1,1,1.9795,0,1,0.092195,1,1,
1,0.8164,2,1,2,1.5428,1,2,0.12195,1,1,
1,0.48922,2,1,2,1.9124,1,1,0.039908,1,1,
1,0.5634,2,2,2,1.3242,0,2,0.11814,1,1,
1,1.0396,2,1,1,1.2905,0,1,0.090439,1,1,
1,0.86504,2,1,2,1.879,1,1,0.037641,1,1,
1,0.95442,2,1,2,1.7791,1,2,0.12391,1,1,
1,0.98296,2,1,2,1.3944,1,1,0.039065,1,1,
1,0.12487,2,1,1,1.8823,0,2,0.2695,1,1,
1,0.78948,2,1,2,1.4257,1,1,0.037292,1,1,
1,0.46243,2,2,1,1.4664,1,2,0.2721,1,1,
1,0.59827,2,1,2,1.4249,1,2,0.12458,1,1,
1,0.67646,2,1,2,1.4552,1,2,0.11509,1,1,
1,0.46784,2,2,1,1.6954,1,1,0.093166,1,1,
1,0.4595,2,2,1,1.0956,1,1,0.086681,1,1,
1,0.82801,2,1,2,1.7335,1,2,0.12183,1,1,
1,0.59902,2,1,2,1.13,1,2,0.12178,1,1,
1,0.47985,2,1,2,1.4965,1,2,0.11866,1,1,
1,0.47894,2,1,2,1.2597,1,2,0.1137,1,1,
1,0.57216,2,2,1,1.5917,1,2,0.28557,1,1,
1,0.67674,2,2,1,1.2276,1,1,0.087598,1,1,
1,0.61722,2,1,2,1.9551,1,2,0.11175,1,1,
1,0.73674,2,1,2,1.063,1,1,0.039832,1,1,
1,0.51674,2,2,1,1.1832,1,2,0.27515,1,1,
1,0.73948,2,2,1,1.6242,1,2,0.2708,1,1,
1,0.52577,2,1,2,1.2914,1,2,0.11942,1,1,
1,0.91126,2,1,2,1.1372,1,1,0.040395,1,1,
1,0.51658,2,2,1,1.1889,1,1,0.089638,1,1,
1,0.5509,2,1,2,1.9566,1,1,0.039814,1,1,
1,0.63644,2,2,1,1.2966,1,1,0.08982,1,1,
1,0.51739,2,1,2,1.2372,1,2,0.11308,1,1,
1,0.44512,2,2,1,1.6602,1,2,0.26712,1,1,
1,0.58297,2,2,1,1.0043,1,2,0.27324,1,1,
1,0.71306,2,2,1,1.0782,1,2,0.26035,1,1,
1,0.7274,2,1,2,1.3096,1,1,0.037517,1,1,
1,0.73489,2,1,2,1.224,1,1,0.038426,1,1,
1,0.51546,2,2,1,1.6953,1,1,0.092454,1,1,
1,0.55379,2,1,2,1.7002,1,2,0.11752,1,1,
1,0.67677,2,2,1,1.8518,1,1,0.090583,1,1,
1,0.54796,2,1,2,1.5591,1,2,0.11225,1,1,
1,0.60341,2,1,2,1.5703,1,2,0.11245,1,1,
1,0.44014,2,2,1,1.5309,1,2,0.26675,1,1,
1,0.48118,2,2,1,1.8589,1,2,0.26669,1,1,
1,0.55818,2,2,1,1.4463,1,1,0.095793,1,1,
1,0.54743,2,1,2,1.3834,1,2,0.12158,1,1,
1,0.50004,2,2,1,1.5954,1,2,0.2764,1,1,
1,0.46957,2,2,1,1.305,1,1,0.094674,1,1,
1,0.57054,2,2,1,1.1011,1,1,0.090715,1,1,
1,0.53684,2,1,2,1.3719,1,1,0.038812,1,1,
1,0.63603,2,1,2,1.2222,1,2,0.12344,1,1,
1,0.77928,2,1,1,1.6432,0,1,0.087978,1,1,
1,0.56424,2,1,2,1.7767,1,2,0.11363,1,1,
1,0.59056,2,2,1,1.43,1,1,0.092261,1,1,
1,0.46477,2,2,1,1.6211,1,2,0.26423,1,1,
1,0.77895,2,2,1,1.2791,1,1,0.08709,1,1,
1,0.74266,2,2,1,1.478,1,2,0.26487,1,1,
1,0.70727,2,2,1,1.3147,1,1,0.088516,1,1,
1,0.57893,2,1,2,1.8272,1,2,0.11158,1,1,
1,0.57413,2,1,2,1.7432,1,2,0.11447,1,1,
1,0.5018,2,2,1,1.1443,1,2,0.27715,1,1,
1,0.49599,2,2,1,1.0683,1,1,0.095757,1,1,
1,0.54861,2,2,1,1.5321,1,2,0.26425,1,1,
1,0.66839,2,2,1,1.744,1,1,0.091843,1,1,
1,0.64879,2,2,2,1.8357,0,1,0.041567,1,1,
1,1.6465,2,1,1,1.7207,0,1,0.09051,1,1,
1,0.38274,2,2,1,1.8876,1,2,0.26562,1,1,
1,0.86832,2,1,2,1.1629,1,1,0.039812,1,1,
1,0.50288,2,2,1,1.2012,1,2,0.27313,1,1,
1,0.44328,2,2,1,1.882,1,2,0.26043,1,1,
1,0.46161,2,1,2,1.462,1,1,0.039606,1,1,
1,0.49939,2,1,2,1.187,1,1,0.03781,1,1,
1,0.89295,2,2,1,1.7249,1,1,0.088108,1,1,
1,0.13047,2,1,1,1.8836,0,1,0.090891,1,1,
1,0.66003,2,1,2,1.798,1,1,0.040815,1,1,
1,0.66953,2,1,1,1.843,0,1,0.092899,1,1,
1,0.53357,2,1,2,1.538,1,2,0.11812,1,1,
1,0.50939,2,1,2,1.2096,1,2,0.12359,1,1,
1,0.80786,2,1,2,1.5304,1,1,0.041466,1,1,
1,0.66664,2,1,2,1.8433,1,1,0.039199,1,1,
1,0.79117,2,1,2,1.2153,1,1,0.038418,1,1,
1,0.5747,2,2,1,1.7167,1,2,0.28545,1,1,
1,0.94097,2,1,2,1.8627,1,1,0.039352,1,1,
1,0.56147,2,2,1,1.4713,1,2,0.28384,1,1,
1,0.4136,2,2,1,1.4605,1,2,0.26295,1,1,
1,0.62206,2,1,2,1.9425,1,2,0.11298,1,1,
1,1.2834,2,2,2,1.2202,1,2,0.11958,0,0,
1,0.45906,2,1,2,1.3453,0,1,0.041176,0,0,
1,0.85591,2,2,2,1.0916,1,1,0.039327,0,0,
1,0.41882,2,2,2,1.6316,1,1,0.038533,0,0,
1,0.44397,2,2,2,1.3782,1,1,0.040575,0,0,
1,0.04638,2,2,1,1.8874,0,1,0.095458,0,0,
1,0.55277,2,2,2,1.4265,1,1,0.040036,0,0,
1,0.47235,2,1,1,1.8908,1,1,0.090438,0,0,
1,0.41797,2,2,2,1.2242,1,1,0.03909,0,0,
1,0.51262,2,1,1,1.7969,1,1,0.087379,0,0,
1,0.284,2,2,2,1.8583,1,2,0.11734,0,0,
1,0.11426,2,1,2,1.4271,0,2,0.11795,0,0,
1,0.26916,2,2,2,1.5889,1,2,0.12312,0,0,
1,1.4374,2,1,2,1.0917,0,1,0.040362,0,0,
1,1.53,2,2,2,1.2506,1,1,0.039918,0,0,
1,0.61421,2,1,1,1.5938,1,1,0.086412,0,0,
1,0.35252,2,1,1,1.5206,1,2,0.25989,0,0,
1,0.27953,2,2,2,1.9141,1,2,0.11914,0,0,
1,0.49363,2,1,1,1.6633,1,1,0.090192,0,0,
1,0.36534,2,1,1,1.4997,1,2,0.2732,0,0,
1,0.31962,2,1,1,1.6348,1,2,0.2577,0,0,
1,0.39887,2,2,2,1.0864,1,2,0.11919,0,0,
1,0.53963,2,1,1,1.0408,1,1,0.091946,0,0,
1,0.31558,2,1,1,1.7516,1,2,0.27121,0,0,
1,0.31245,2,1,1,1.3238,1,2,0.26136,0,0,
1,0.33562,2,1,1,1.0665,1,2,0.27985,0,0,
1,0.32707,2,2,2,1.9233,1,2,0.12217,0,0,
1,0.35663,2,1,1,1.0544,1,2,0.26532,0,0,
1,0.33956,2,1,1,1.0679,1,1,0.090671,0,0,
1,1.0977,2,1,1,1.5735,1,2,0.2637,0,0,
1,0.45019,2,2,2,1.4392,1,1,0.038,0,0,
1,0.37979,2,2,1,1.0274,0,1,0.093869,0,0,
1,0.32987,2,2,2,1.0497,1,2,0.11236,0,0,
1,0.37211,2,1,1,1.2386,1,2,0.26242,0,0,
1,0.72304,2,1,1,1.1273,1,1,0.095681,0,0,
1,0.3645,2,2,2,1.6303,1,2,0.11913,0,0,
1,0.5068,2,2,2,1.4764,1,1,0.039748,0,0,
1,0.32013,2,1,1,1.11,1,2,0.28623,0,0,
1,0.31894,2,2,2,1.4354,1,2,0.11279,0,0,
1,0.070402,2,2,2,1.9019,1,2,0.12337,0,0,
1,0.32652,2,2,2,1.5658,1,2,0.12355,0,0,
1,0.33319,2,2,2,1.7306,1,2,0.11428,0,0,
1,0.4464,2,1,1,1.981,1,1,0.087183,0,0,
1,0.43194,2,2,2,1.5882,1,1,0.040037,0,0,
1,0.41786,2,2,2,1.5032,1,1,0.037946,0,0,
1,0.40594,2,2,1,1.5316,0,1,0.086679,0,0,
1,0.83715,2,1,1,1.6063,1,2,0.26759,0,0,
1,0.3764,2,1,1,1.7643,1,2,0.26874,0,0,
1,0.49622,2,2,2,1.6006,1,1,0.037553,0,0,
1,0.28072,2,2,2,1.7226,1,2,0.12063,0,0,
1,0.38349,2,1,1,1.4352,1,2,0.27324,0,0,
1,0.65495,2,2,2,1.6465,1,1,0.041634,0,0,
1,1.5676,2,2,1,1.1767,0,1,0.087644,0,0,
1,0.34201,2,2,2,1.8765,1,2,0.12394,0,0,
1,0.51566,2,2,1,1.2517,0,1,0.09233,0,0,
1,0.55315,2,2,2,1.3565,1,1,0.040488,0,0,
1,0.47287,2,2,2,1.3033,1,1,0.038822,0,0,
1,0.32863,2,2,2,1.9678,1,2,0.11776,0,0,
1,0.34655,2,1,1,1.1923,1,2,0.25973,0,0,
1,0.46054,2,1,1,1.0979,1,1,0.094684,0,0,
1,0.46096,2,1,1,1.6938,1,2,0.27006,0,0,
1,1.2656,2,2,2,1.096,1,1,0.040139,0,0,
1,0.43594,2,1,1,1.1994,1,1,0.093003,0,0,
1,0.46262,2,2,2,1.6071,1,1,0.038409,0,0,
1,0.31354,2,2,2,1.7097,1,2,0.11939,0,0,
1,0.36808,2,1,1,1.8905,1,2,0.26775,0,0,
1,0.42161,2,1,1,1.6026,1,2,0.28118,0,0,
1,0.63384,2,2,1,1.8625,0,1,0.086251,0,0,
1,0.34686,2,2,2,1.676,1,2,0.125,0,0,
1,0.15455,2,1,1,1.785,1,1,0.093516,0,0,
1,0.5124,2,2,2,1.5366,1,1,0.037198,0,0,
1,0.34849,2,1,1,1.0044,1,2,0.28422,0,0,
1,0.56173,2,1,2,1.1986,0,1,0.041054,0,0,
1,0.63207,2,1,2,1.4387,0,1,0.040275,0,0,
1,0.56528,2,2,2,1.5583,1,1,0.041153,0,0,
1,0.56981,2,2,2,1.3851,1,1,0.039214,0,0,
1,1.4116,2,2,1,1.6469,0,1,0.089261,0,0,
1,0.3659,2,2,2,1.5857,1,1,0.037524,0,0,
1,0.070796,2,2,1,1.7663,0,1,0.095928,0,0,
1,0.71862,2,1,1,1.1746,1,1,0.094532,0,0,
1,0.35215,2,2,2,1.5031,1,2,0.1115,0,0,
1,0.54928,2,1,1,1.3827,1,1,0.092488,0,0,
1,0.48896,2,2,1,1.9772,0,1,0.092221,0,0,
1,0.3264,2,1,1,1.9361,1,2,0.26903,0,0,
1,0.38067,2,2,2,1.8927,1,2,0.11779,0,0,
1,0.39814,2,2,2,1.4435,1,2,0.1166,0,0,
1,0.3948,2,1,1,1.7515,1,1,0.090093,0,0,
1,0.10996,2,2,1,1.9094,0,2,0.25736,0,0,
1,1.7967,2,1,1,1.3733,1,1,0.089815,0,0,
1,0.34877,2,1,1,1.1163,1,2,0.25972,0,0,
1,0.32251,2,2,2,1.5251,1,2,0.11205,0,0,
1,0.3513,2,2,2,1.3411,1,2,0.11887,0,0,
1,0.29973,2,2,2,1.8494,1,2,0.11963,0,0,
1,0.77901,2,1,1,1.1862,1,2,0.27935,0,0,
1,0.47942,2,1,1,1.2087,1,1,0.088091,0,0,
1,0.37671,2,1,1,1.5304,1,2,0.27895,0,0,
1,1.2769,2,2,2,1.0843,1,1,0.040348,0,0,
1,0.54578,2,1,1,1.2408,1,2,0.27189,0,0,
1,0.34577,2,1,1,1.6346,1,2,0.28435,0,0,
1,0.3408,2,2,2,1.1111,1,2,0.12197,0,0,
1,NaN,2,0,1,1.298,NaN,1,0.094576,0,1,
1,0.63878,2,2,2,1.9958,1,2,0.11797,0,1,
1,0.66999,2,1,1,1.5544,1,2,0.27512,0,1,
1,0.040517,2,2,1,1.6561,0,2,0.27867,0,1,
1,0.36603,2,1,1,1.9453,1,2,0.26074,0,1,
1,0.39269,2,1,1,1.2246,1,1,0.091462,0,1,
1,0.043461,2,1,1,1.9815,1,2,0.2624,0,1,
1,0.63957,2,1,1,1.1706,1,1,0.08615,0,1,
1,0.60555,2,2,2,1.9411,1,2,0.11232,0,1,
1,0.52364,2,1,1,1.957,1,2,0.28589,0,1,
1,0.54039,2,1,1,1.175,1,2,0.27241,0,1,
1,0.58475,2,2,2,1.0543,1,1,0.037815,0,1,
1,0.61414,2,1,1,1.2682,1,2,0.2764,0,1,
1,1.137,2,2,2,1.546,1,2,0.11925,0,1,
1,0.57389,2,2,1,1.7752,0,2,0.26596,0,1,
1,0.56436,2,2,2,1.6038,1,2,0.12047,0,1,
1,0.96602,2,2,2,1.3161,1,2,0.11672,0,1,
1,0.38238,2,1,1,1.4334,1,2,0.26314,0,1,
1,1.3099,2,2,1,1.8428,0,1,0.087928,0,1,
1,0.5953,2,1,1,1.6261,1,2,0.26824,0,1,
1,0.55711,2,1,1,1.2725,1,2,0.25756,0,1,
1,0.91285,2,2,2,1.5145,1,2,0.11604,0,1,
1,0.77339,2,1,1,1.8884,1,1,0.091136,0,1,
1,0.676,2,2,2,1.1743,1,2,0.1189,0,1,
1,0.93418,2,2,2,1.8201,1,2,0.11236,0,1,
1,0.53348,2,2,1,1.1812,0,2,0.27435,0,1,
1,0.90119,2,1,2,1.0973,0,1,0.03926,0,1,
1,0.5838,2,1,1,1.0313,1,1,0.092296,0,1,
1,0.95943,2,2,2,1.0102,1,2,0.12206,0,1,
1,1.1518,2,2,2,1.9674,1,2,0.11397,0,1,
1,0.64376,2,1,2,1.888,0,1,0.041517,0,1,
1,0.43978,2,2,1,1.0497,0,2,0.27287,0,1,
1,0.70635,2,1,1,1.6702,1,1,0.095019,0,1,
1,0.86884,2,2,2,1.9766,1,2,0.1201,0,1,
1,1.9952,2,2,2,1.2203,1,1,0.037829,0,1,
1,0.49975,2,2,2,1.0841,1,1,0.037391,0,1,
1,0.5909,2,1,1,1.3589,1,2,0.25702,0,1,
1,0.57997,2,1,1,1.7332,1,1,0.087479,0,1,
1,0.45933,2,2,2,1.6021,1,1,0.039495,0,1,
1,1.4195,2,2,2,1.4514,1,1,0.037804,0,1,
1,0.39824,2,2,1,1.9128,0,1,0.086247,0,1,
1,0.74669,2,2,2,1.0032,1,2,0.11885,0,1,
1,0.22172,2,2,1,1.5101,0,2,0.28726,0,1,
1,NaN,2,0,1,1.1445,NaN,1,0.087142,0,1,
1,NaN,2,0,1,1.5046,NaN,1,0.08708,0,1,
1,0.62525,2,1,1,1.5682,1,2,0.26145,0,1,
1,0.61889,2,1,1,1.6422,1,2,0.2589,0,1,
1,1.1749,2,1,2,1.2069,0,1,0.040371,0,1,
1,0.5383,2,2,1,1.3402,0,1,0.090033,0,1,
1,0.09282,2,2,1,1.3275,0,2,0.27209,0,1,
1,1.3054,2,1,2,1.615,0,1,0.039848,0,1,
1,0.28086,2,1,1,1.5912,1,1,0.094676,0,1,
1,0.65148,2,2,2,1.6879,1,1,0.037692,0,1,
1,0.85786,2,1,1,1.1664,1,2,0.26529,0,1,
1,0.043484,2,1,1,1.6522,1,2,0.25842,0,1,
1,0.80175,2,1,1,1.7686,1,1,0.086949,0,1,
1,0.55465,2,2,2,1.3958,1,2,0.11238,0,1,
1,1.0721,2,2,2,1.3963,1,1,0.037967,0,1,
1,0.073367,2,2,2,1.6921,1,2,0.12182,0,1,
1,1.9333,2,2,2,1.2377,1,1,0.041213,0,1,
1,1.6631,2,2,1,1.9489,0,1,0.090782,0,1,
1,0.57205,2,1,1,1.1358,1,2,0.28277,0,1,
1,0.58524,2,2,2,1.5115,1,2,0.11448,0,1,
1,1.1923,2,2,2,1.0414,1,1,0.039046,0,1,
1,0.54981,2,2,2,1.3124,1,2,0.11633,0,1,
1,0.43994,2,1,1,1.3218,1,2,0.27798,0,1,
1,0.056179,2,2,1,1.9483,0,1,0.095347,0,1,
1,0.57756,2,2,2,1.2073,1,1,0.038111,0,1,
1,0.51853,2,1,1,1.4893,1,1,0.093269,0,1,
1,0.64937,2,1,1,1.4447,1,1,0.090798,0,1,
1,0.53427,2,2,2,1.8208,1,2,0.1217,0,1,
1,0.52893,2,2,2,1.0175,1,2,0.1234,0,1,
1,0.21131,2,2,1,1.7885,0,1,0.087894,0,1,
1,0.31214,2,2,2,1.5408,1,1,0.041413,0,1,
1,0.61304,2,2,1,1.0455,0,1,0.085791,0,1,
1,0.48799,2,1,2,1.5139,0,1,0.039649,0,1,
1,0.96853,2,2,2,1.4456,1,2,0.12354,0,1,
1,0.39539,2,2,2,1.4914,1,2,0.11366,0,1,
1,0.1132,2,1,2,1.6599,0,1,0.039032,0,1,
1,0.71023,2,1,1,1.5054,1,1,0.088804,0,1,
1,0.13219,2,1,2,1.7419,0,1,0.039677,0,1,
1,0.82782,2,2,2,1.9438,1,2,0.12264,0,1,
1,0.64061,2,2,2,1.7993,1,1,0.038881,0,1,
1,0.5664,2,2,2,1.4377,1,2,0.11977,0,1,
1,0.39133,2,2,1,1.0903,0,1,0.095575,0,1,
1,0.51649,2,1,1,1.9336,1,2,0.28225,0,1,
1,0.61021,2,2,2,1.3784,1,1,0.040815,0,1,
1,0.4961,2,2,2,1.7589,1,1,0.041487,0,1,
1,0.45728,2,2,2,1.8038,1,1,0.037959,0,1,
1,0.15045,2,2,2,1.8042,1,1,0.040149,0,1,
1,0.38877,2,2,1,1.5958,0,1,0.093082,0,1,
1,0.51606,2,1,1,1.325,1,1,0.093986,0,1,
1,0.24559,2,2,2,1.7483,1,1,0.040198,0,1,
1,0.8546,2,1,1,1.4765,1,2,0.26651,0,1,
1,0.59617,2,2,2,1.5156,1,2,0.11195,0,1,
1,0.46217,2,1,1,1.4801,1,2,0.26015,0,1,
1,0.45608,2,2,1,1.424,0,1,0.088363,0,1,
1,0.58413,2,2,2,1.176,1,1,0.040932,0,1,
1,0.80011,2,2,2,1.2806,1,2,0.12369,0,1,
1,0.604,2,1,2,1.8777,0,2,0.11743,0,1,
1,0.5525,2,1,2,1.9114,1,1,0.04104,1,0,
1,0.60264,2,1,2,1.1472,1,2,0.11577,1,0,
1,0.13046,2,1,2,1.3049,1,1,0.038584,1,0,
1,0.57241,2,1,1,1.7799,0,1,0.089556,1,0,
1,0.34953,2,2,1,1.4872,1,1,0.093382,1,0,
1,0.11258,2,1,2,1.5492,1,1,0.037875,1,0,
1,0.62198,2,2,1,1.8782,1,2,0.27773,1,0,
1,0.45239,2,1,1,1.9883,0,1,0.092098,1,0,
1,0.49462,2,2,1,1.0192,1,2,0.28202,1,0,
1,0.41932,2,1,2,1.3513,1,2,0.11647,1,0,
1,0.3483,2,2,1,1.5346,1,2,0.2599,1,0,
1,0.5306,2,1,2,1.7478,1,2,0.1231,1,0,
1,0.77229,2,1,2,1.97,1,1,0.040347,1,0,
1,0.20927,2,1,2,1.6951,1,2,0.11913,1,0,
1,0.54781,2,1,2,1.2733,1,2,0.12143,1,0,
1,0.5787,2,2,1,1.9511,1,2,0.27983,1,0,
1,0.62398,2,1,2,1.9077,1,1,0.039619,1,0,
1,0.12078,2,2,2,1.4574,0,2,0.12227,1,0,
1,0.14862,2,1,2,1.7332,1,1,0.040149,1,0,
1,0.482,2,1,2,1.5582,1,2,0.11859,1,0,
1,0.11563,2,2,2,1.9939,0,1,0.040221,1,0,
1,0.4064,2,1,2,1.3893,1,1,0.041487,1,0,
1,0.053337,2,1,1,1.8817,0,2,0.2758,1,0,
1,0.53371,2,1,2,1.8933,1,2,0.12253,1,0,
1,0.46189,2,1,2,1.386,1,2,0.11395,1,0,
1,0.51779,2,2,2,1.7276,0,1,0.040525,1,0,
1,0.062905,2,1,2,1.9126,1,1,0.038127,1,0,
1,1.6945,2,1,1,1.9041,0,1,0.089724,1,0,
1,0.46559,2,2,1,1.0815,1,2,0.28103,1,0,
1,0.68887,2,1,2,1.0333,1,2,0.11675,1,0,
1,0.78312,2,1,1,1.5724,0,1,0.085969,1,0,
1,0.45662,2,2,1,1.0093,1,2,0.26258,1,0,
1,0.3557,2,2,1,1.1983,1,2,0.25784,1,0,
1,0.40101,2,2,1,1.0207,1,1,0.092054,1,0,
1,0.53091,2,2,1,1.7923,1,2,0.26412,1,0,
1,0.75065,2,1,2,1.1908,1,1,0.039008,1,0,
1,1.6763,2,1,2,1.9521,1,2,0.11373,1,0,
1,1.3048,2,1,2,1.7702,1,1,0.041151,1,0,
1,1.2738,2,1,2,1.8166,1,1,0.038655,1,0,
1,0.15692,2,1,1,1.4261,0,1,0.087567,1,0,
1,0.63324,2,1,2,1.3002,1,2,0.12219,1,0,
1,0.63603,2,1,2,1.6803,1,2,0.11181,1,0,
1,0.52394,2,2,1,1.8585,1,1,0.085916,1,0,
1,0.59001,2,1,2,1.8718,1,2,0.11851,1,0,
1,0.15421,2,2,2,1.8971,0,2,0.12415,1,0,
1,0.4799,2,2,1,1.8436,1,1,0.091664,1,0,
1,0.43014,2,2,1,1.4852,1,1,0.091653,1,0,
1,0.5225,2,2,1,1.4885,1,2,0.27631,1,0,
1,0.51167,2,2,1,1.0653,1,2,0.2853,1,0,
1,0.48912,2,2,1,1.457,1,1,0.08771,1,0,
1,0.5517,2,2,1,1.5956,1,2,0.28409,1,0,
1,0.51017,2,2,1,1.1101,1,1,0.086006,1,0,
1,0.46014,2,2,1,1.3438,1,1,0.093905,1,0,
1,0.57987,2,2,2,1.2641,0,1,0.037306,1,0,
1,0.57625,2,1,2,1.5802,1,2,0.11696,1,0,
1,1.321,2,1,2,1.4354,1,2,0.1194,1,0,
1,0.54379,2,2,1,1.4151,1,2,0.26245,1,0,
1,0.6066,2,1,2,1.0542,1,1,0.040734,1,0,
1,0.60046,2,2,1,1.2597,1,2,0.26288,1,0,
1,0.60744,2,1,2,1.2442,1,2,0.11376,1,0,
1,0.10558,2,1,1,1.7091,0,2,0.27536,1,0,
1,0.5385,2,1,1,1.6589,0,1,0.09531,1,0,
1,0.47099,2,1,2,1.1192,1,2,0.12032,1,0,
1,0.43159,2,1,2,1.1292,1,2,0.11429,1,0,
1,0.60205,2,2,1,1.078,1,1,0.095009,1,0,
1,0.45666,2,1,2,1.7352,1,1,0.03883,1,0,
1,0.56501,2,2,1,1.5561,1,2,0.25761,1,0,
1,0.41842,2,2,1,1.8344,1,2,0.26338,1,0,
1,0.55326,2,1,2,1.1061,1,1,0.041257,1,0,
1,0.48168,2,1,2,1.2566,1,1,0.041077,1,0,
1,0.43794,2,2,1,1.0541,1,2,0.27437,1,0,
1,0.46568,2,2,1,1.6566,1,2,0.27368,1,0,
1,0.49727,2,1,2,1.2774,1,2,0.11151,1,0,
1,0.42556,2,1,2,1.7091,1,2,0.11314,1,0,
1,0.92817,2,2,2,1.1303,0,1,0.038097,1,0,
1,0.3719,2,1,1,1.524,0,1,0.094065,1,0,
1,0.83418,2,1,1,1.0459,0,1,0.089427,1,0,
1,0.45513,2,2,1,1.1013,1,2,0.26614,1,0,
1,0.62465,2,1,2,1.4689,1,1,0.038304,1,0,
1,0.82832,2,1,2,1.7106,1,1,0.038457,1,0,
1,0.48377,2,1,2,1.6013,1,1,0.039045,1,0,
1,0.34291,2,1,2,1.2049,1,1,0.037999,1,0,
1,0.074314,2,1,1,1.6188,0,2,0.27389,1,0,
1,0.53554,2,2,1,1.6992,1,2,0.27675,1,0,
1,0.52321,2,1,2,1.3148,1,1,0.040219,1,0,
1,0.66226,2,2,1,1.8048,1,2,0.26724,1,0,
1,0.7752,2,2,1,1.178,1,1,0.095483,1,0,
1,0.6021,2,2,1,1.2413,1,1,0.087958,1,0,
1,0.66247,2,1,1,1.5947,0,1,0.093218,1,0,
1,0.58586,2,1,2,1.8682,1,2,0.11662,1,0,
1,0.49199,2,1,2,1.8187,1,2,0.12289,1,0,
1,1.6649,2,1,1,1.5901,0,1,0.089266,1,0,
1,0.47165,2,1,2,1.0023,1,2,0.12096,1,0,
1,0.21477,2,2,1,1.9445,1,2,0.26699,1,0,
1,0.75993,2,2,1,1.7925,1,2,0.28383,1,0,
1,0.68401,2,2,1,1.3993,1,1,0.093242,1,0,
1,0.18425,2,1,1,1.8734,0,1,0.08991,1,0,
1,0.52402,2,2,2,1.6744,0,1,0.038921,1,0,
1,0.39109,2,1,1,1.2424,0,1,0.089276,1,0,
1,0.48942,2,1,1,1.1684,0,1,0.090001,1,0,
1,0.58476,2,2,1,1.7468,1,1,0.092783,1,1,
1,0.49334,2,1,2,1.586,1,2,0.11254,1,1,
1,0.069262,2,2,2,1.7731,0,1,0.037352,1,1,
1,0.38855,2,2,2,1.3925,0,1,0.039329,1,1,
1,0.87072,2,2,2,1.6053,0,2,0.11738,1,1,
1,0.77361,2,1,2,1.2474,1,1,0.039309,1,1,
1,0.3766,2,1,2,1.2902,1,2,0.11365,1,1,
1,0.54565,2,2,1,1.0193,1,1,0.08915,1,1,
1,0.69293,2,2,2,1.3473,0,1,0.041133,1,1,
1,0.51418,2,2,1,1.1418,1,2,0.27953,1,1,
1,0.56666,2,1,2,1.4115,1,2,0.11698,1,1,
1,0.50842,2,2,1,1.1531,1,2,0.28482,1,1,
1,0.691,2,1,2,1.829,1,2,0.11272,1,1,
1,0.20532,2,2,1,1.7392,1,2,0.26198,1,1,
1,0.46784,2,2,1,1.0989,1,1,0.095371,1,1,
1,0.40075,2,2,1,1.8206,1,2,0.25957,1,1,
1,0.34495,2,2,1,1.2271,1,1,0.089431,1,1,
1,0.84206,2,2,2,1.1069,0,1,0.038425,1,1,
1,0.84188,2,1,2,1.6628,1,1,0.037481,1,1,
1,0.50653,2,2,1,1.9546,1,2,0.26238,1,1,
1,0.29396,2,2,2,1.8146,0,1,0.038997,1,1,
1,0.043938,2,2,1,1.6233,1,1,0.088457,1,1,
1,0.37911,2,2,1,1.3283,1,1,0.092724,1,1,
1,0.55736,2,1,2,1.2774,1,2,0.11462,1,1,
1,0.49753,2,2,1,1.4344,1,1,0.095513,1,1,
1,0.98942,2,1,2,1.3503,1,2,0.11549,1,1,
1,0.46084,2,2,1,1.8778,1,2,0.26119,1,1,
1,0.60211,2,2,1,1.0062,1,1,0.091172,1,1,
1,0.63138,2,1,2,1.6964,1,2,0.12212,1,1,
1,0.34593,2,2,1,1.3381,1,2,0.27002,1,1,
1,0.3735,2,2,1,1.305,1,1,0.095913,1,1,
1,0.55261,2,1,2,1.6481,1,2,0.11725,1,1,
1,0.43921,2,2,1,1.9211,1,2,0.26572,1,1,
1,0.84071,2,2,2,1.8931,0,1,0.038237,1,1,
1,0.52261,2,2,1,1.9972,1,1,0.095527,1,1,
1,0.51991,2,2,1,1.0729,1,1,0.087747,1,1,
1,0.32569,2,2,1,1.1296,1,2,0.26853,1,1,
1,0.55087,2,1,2,1.9816,1,1,0.03814,1,1,
1,0.45009,2,2,1,1.0902,1,1,0.088224,1,1,
1,0.16701,2,2,1,1.6862,1,2,0.26923,1,1,
1,0.46772,2,1,2,1.929,1,2,0.12507,1,1,
1,0.62392,2,1,2,1.1418,1,2,0.12383,1,1,
1,0.40825,2,2,2,1.8844,0,2,0.11879,1,1,
1,0.62088,2,1,2,1.0198,1,1,0.039808,1,1,
1,0.69864,2,2,1,1.3427,1,1,0.086306,1,1,
1,0.40862,2,1,1,1.2383,0,2,0.27418,1,1,
1,0.37265,2,2,1,1.9846,1,1,0.094841,1,1,
1,1.2478,2,1,2,1.8466,1,1,0.039203,1,1,
1,0.12075,2,1,2,1.7945,1,1,0.038911,1,1,
1,0.60581,2,1,2,1.9003,1,2,0.11285,1,1,
1,0.4565,2,2,2,1.7801,0,1,0.040065,1,1,
1,0.57726,2,2,1,1.8365,1,2,0.2876,1,1,
1,1.0439,2,2,2,1.3211,0,1,0.040184,1,1,
1,0.53083,2,1,2,1.7427,1,2,0.11714,1,1,
1,0.50392,2,2,1,1.6645,1,2,0.27666,1,1,
1,0.47399,2,2,1,1.2892,1,1,0.091522,1,1,
1,0.4744,2,1,2,1.3374,1,2,0.12149,1,1,
1,0.77717,2,2,1,1.9086,1,2,0.27622,1,1,
1,0.40539,2,2,1,1.0323,1,1,0.09063,1,1,
1,0.59437,2,2,1,1.6964,1,2,0.28583,1,1,
1,0.67908,2,2,1,1.2088,1,2,0.27509,1,1,
1,0.62786,2,1,2,1.8241,1,2,0.12001,1,1,
1,0.53591,2,1,2,1.2182,1,2,0.1209,1,1,
1,1.0474,2,2,2,1.0996,0,1,0.041039,1,1,
1,0.66845,2,1,2,1.6195,1,1,0.038827,1,1,
1,0.4468,2,1,2,1.1038,1,1,0.040342,1,1,
1,0.63807,2,2,1,1.7991,1,1,0.090837,1,1,
1,0.60677,2,2,1,1.9029,1,1,0.089179,1,1,
1,0.56886,2,1,2,1.3125,1,2,0.11722,1,1,
1,0.39885,2,1,2,1.2816,1,2,0.12069,1,1,
1,0.44951,2,2,1,1.0068,1,2,0.26336,1,1,
1,0.40867,2,2,1,1.4959,1,2,0.28718,1,1,
1,0.20616,2,1,2,1.9885,1,1,0.041585,1,1,
1,0.091342,2,1,1,1.7379,0,1,0.088422,1,1,
1,0.58138,2,1,2,1.3107,1,2,0.11593,1,1,
1,0.36031,2,2,1,1.6004,1,1,0.09592,1,1,
1,0.3505,2,2,1,1.7817,1,2,0.28097,1,1,
1,0.527,2,1,2,1.1115,1,1,0.040729,1,1,
1,0.44206,2,1,2,1.5793,1,1,0.039974,1,1,
1,0.63613,2,1,2,1.8704,1,2,0.12242,1,1,
1,0.42371,2,1,2,1.6898,1,1,0.039134,1,1,
1,0.41871,2,1,2,1.243,1,1,0.040896,1,1,
1,0.5866,2,1,2,1.3427,1,2,0.11314,1,1,
1,0.58714,2,1,2,1.5454,1,1,0.039429,1,1,
1,0.44052,2,2,1,1.0676,1,2,0.27861,1,1,
1,0.37063,2,2,1,1.4104,1,1,0.088002,1,1,
1,0.33206,2,1,2,1.2375,1,1,0.039514,1,1,
1,0.40986,2,1,2,1.489,1,1,0.038839,1,1,
1,0.052503,2,1,2,1.8061,1,2,0.12228,1,1,
1,0.40919,2,2,1,1.3778,1,2,0.27717,1,1,
1,0.51559,2,1,2,1.518,1,2,0.12486,1,1,
1,0.36192,2,2,1,1.0946,1,2,0.28579,1,1,
1,0.37199,2,2,1,1.9091,1,1,0.09139,1,1,
1,0.32624,2,2,1,1.2076,1,1,0.086317,1,1,
1,0.34776,2,2,1,1.3821,1,2,0.26909,1,1,
1,0.40843,2,2,1,1.6603,1,1,0.087323,1,1,
1,0.63857,2,2,2,1.7584,0,2,0.12504,1,1,
1,0.55846,2,2,1,1.1731,1,1,0.090804,1,1,
1,0.49337,2,1,1,1.5174,0,2,0.2841,1,1,
1,0.62929,2,2,1,1.9953,1,2,0.27645,1,1,
1,NaN,2,0,2,1.1788,NaN,2,0.11312,0,0,
1,1.3005,2,2,2,1.8597,1,2,0.1144,0,0,
1,0.31864,2,2,2,1.232,1,1,0.039139,0,0,
1,0.23296,2,2,1,1.1681,0,1,0.090952,0,0,
1,0.87503,2,2,2,1.0267,1,1,0.041656,0,0,
1,0.38143,2,2,1,1.3224,0,1,0.092887,0,0,
1,1.7623,2,1,2,1.5552,0,1,0.041606,0,0,
1,0.20808,2,2,1,1.8245,0,2,0.25816,0,0,
1,0.43572,2,1,1,1.8042,1,1,0.09203,0,0,
1,0.43697,2,2,2,1.0244,1,2,0.12454,0,0,
1,0.30964,2,1,1,1.3715,1,1,0.088223,0,0,
1,0.31028,2,1,1,1.4919,1,1,0.095402,0,0,
1,0.32117,2,1,1,1.4661,1,1,0.094885,0,0,
1,0.41023,2,1,1,1.0417,1,1,0.087462,0,0,
1,0.38943,2,1,1,1.617,1,2,0.27919,0,0,
1,0.28264,2,1,1,1.578,1,2,0.26179,0,0,
1,0.42233,2,2,2,1.2988,1,2,0.11286,0,0,
1,0.37773,2,1,1,1.4357,1,2,0.26602,0,0,
1,0.32261,2,1,1,1.1366,1,2,0.26708,0,0,
1,0.58946,2,2,2,1.2997,1,1,0.038914,0,0,
1,0.09002,2,2,1,1.7614,0,2,0.2651,0,0,
1,0.33565,2,1,1,1.0353,1,2,0.26601,0,0,
1,0.55057,2,2,2,1.2695,1,1,0.040371,0,0,
1,0.45058,2,2,2,1.9963,1,2,0.12431,0,0,
1,0.62923,2,1,1,1.4469,1,1,0.086392,0,0,
1,0.42279,2,1,1,1.1528,1,1,0.088321,0,0,
1,1.0232,2,1,2,1.8862,0,1,0.039807,0,0,
1,0.99209,2,2,2,1.0314,1,1,0.040886,0,0,
1,0.67091,2,2,2,1.116,1,1,0.040669,0,0,
1,0.47315,2,1,1,1.2509,1,2,0.27357,0,0,
1,0.42723,2,1,1,1.7597,1,1,0.085882,0,0,
1,0.49023,2,1,2,1.8983,0,2,0.12043,0,0,
1,0.61614,2,2,2,1.2234,1,1,0.040983,0,0,
1,0.44485,2,2,2,1.6733,1,1,0.037448,0,0,
1,0.52388,2,1,1,1.8188,1,2,0.26745,0,0,
1,0.39127,2,1,1,1.9489,1,2,0.26431,0,0,
1,0.35395,2,2,2,1.8743,1,2,0.11719,0,0,
1,0.37492,2,2,2,1.3937,1,1,0.0385,0,0,
1,0.36095,2,2,2,1.937,1,2,0.12462,0,0,
1,0.39354,2,1,1,1.4369,1,2,0.26044,0,0,
1,0.69839,2,2,2,1.1625,1,1,0.038109,0,0,
1,0.33738,2,2,2,1.3098,1,2,0.12358,0,0,
1,0.42092,2,1,1,1.6811,1,1,0.09187,0,0,
1,0.89934,2,2,2,1.9341,1,1,0.03891,0,0,
1,1.0736,2,2,2,1.9474,1,1,0.038722,0,0,
1,0.74011,2,1,1,1.5991,1,1,0.092133,0,0,
1,0.061218,2,2,1,1.9489,0,2,0.27917,0,0,
1,0.57208,2,2,2,1.404,1,2,0.1213,0,0,
1,0.39805,2,2,2,1.041,1,1,0.041501,0,0,
1,0.38547,2,2,2,1.2938,1,1,0.037364,0,0,
1,0.32488,2,2,2,1.0319,1,2,0.11708,0,0,
1,1.1812,2,2,1,1.8645,0,1,0.085612,0,0,
1,0.4259,2,2,2,1.4325,1,1,0.040304,0,0,
1,0.46427,2,2,2,1.0928,1,1,0.040663,0,0,
1,0.33496,2,1,1,1.1378,1,1,0.09127,0,0,
1,0.58588,2,1,2,1.242,0,2,0.1118,0,0,
1,0.38836,2,2,2,1.223,1,2,0.1116,0,0,
1,0.41136,2,1,1,1.8677,1,1,0.095837,0,0,
1,0.48041,2,2,2,1.7642,1,1,0.03804,0,0,
1,0.18933,2,2,2,1.3447,1,2,0.12259,0,0,
1,0.33961,2,1,1,1.3848,1,2,0.26746,0,0,
1,0.45488,2,1,1,1.5949,1,1,0.090188,0,0,
1,0.39632,2,2,2,1.5351,1,1,0.037641,0,0,
1,0.47104,2,1,1,1.3336,1,1,0.093573,0,0,
1,0.34671,2,1,1,1.8547,1,1,0.090107,0,0,
1,0.74338,2,2,2,1.2656,1,1,0.03846,0,0,
1,0.41694,2,2,2,1.9339,1,2,0.1162,0,0,
1,0.52406,2,2,2,1.3898,1,2,0.11787,0,0,
1,0.39246,2,1,1,1.6831,1,1,0.089877,0,0,
1,0.37962,2,2,2,1.275,1,2,0.12084,0,0,
1,0.3898,2,1,1,1.028,1,1,0.092436,0,0,
1,0.21971,2,2,2,1.9406,1,1,0.037196,0,0,
1,0.43121,2,1,1,1.534,1,2,0.25891,0,0,
1,0.48392,2,2,2,1.6712,1,2,0.11757,0,0,
1,0.44179,2,1,1,1.6075,1,2,0.2806,0,0,
1,0.4897,2,2,1,1.7509,0,2,0.28187,0,0,
1,0.10256,2,2,1,1.9813,0,2,0.27592,0,0,
1,0.47173,2,2,2,1.7277,1,2,0.11628,0,0,
1,0.54448,2,1,1,1.8573,1,2,0.28417,0,0,
1,0.67597,2,2,2,1.9918,1,2,0.11477,0,0,
1,0.46967,2,1,1,1.7595,1,1,0.086177,0,0,
1,0.80749,2,2,2,1.146,1,1,0.040412,0,0,
1,0.65499,2,2,2,1.3263,1,2,0.12179,0,0,
1,0.5815,2,1,1,1.0288,1,2,0.28453,0,0,
1,0.54859,2,2,2,1.6946,1,1,0.040597,0,0,
1,0.13693,2,2,1,1.9588,0,1,0.095374,0,0,
1,0.34763,2,1,1,1.729,1,2,0.27289,0,0,
1,0.30182,2,1,1,1.7368,1,2,0.28655,0,0,
1,0.50655,2,1,2,1.1746,0,2,0.12479,0,0,
1,0.53156,2,2,2,1.3554,1,1,0.039469,0,0,
1,0.42884,2,1,1,1.5746,1,2,0.2828,0,0,
1,1.0459,2,2,2,1.4599,1,2,0.12365,0,0,
1,0.38617,2,2,2,1.8337,1,2,0.12412,0,0,
1,0.065927,2,2,1,1.8154,0,2,0.27045,0,0,
1,1.4811,2,2,1,1.324,0,1,0.093335,0,0,
1,0.38639,2,1,1,1.4617,1,1,0.095285,0,0,
1,0.59671,2,2,2,1.674,1,2,0.12241,0,0,
1,0.45701,2,1,1,1.5952,1,2,0.28558,0,0,
1,0.40163,2,1,1,1.1344,1,2,0.27012,0,0,
1,1.4143,2,1,1,1.0195,1,1,0.094141,0,0,
1,NaN,2,0,1,1.7172,NaN,2,0.26107,0,1,
1,NaN,2,0,2,1.9766,NaN,2,0.12369,0,1,
1,0.41246,2,2,1,1.427,0,1,0.086222,0,1,
1,0.052465,2,2,1,1.913,0,2,0.2865,0,1,
1,0.3436,2,2,1,1.8973,0,2,0.2781,0,1,
1,0.35221,2,1,1,1.8352,1,2,0.25693,0,1,
1,0.49563,2,1,2,1.048,0,1,0.037188,0,1,
1,0.56082,2,1,1,1.3593,1,2,0.28306,0,1,
1,0.39896,2,1,1,1.2958,1,1,0.090251,0,1,
1,0.60202,2,2,2,1.6291,1,1,0.040925,0,1,
1,0.3737,2,2,2,1.1362,1,1,0.038123,0,1,
1,0.49976,2,1,1,1.374,1,2,0.28152,0,1,
1,0.43957,2,2,2,1.8648,1,2,0.11474,0,1,
1,0.43583,2,1,1,1.2503,1,2,0.28782,0,1,
1,0.44711,2,1,2,1.0295,0,1,0.041405,0,1,
1,0.44031,2,2,2,1.9994,1,1,0.039614,0,1,
1,0.37225,2,2,2,1.6051,1,2,0.12385,0,1,
1,0.60106,2,1,1,1.2442,1,1,0.092015,0,1,
1,0.95965,2,2,2,1.4382,1,2,0.12198,0,1,
1,0.65133,2,1,1,1.7351,1,2,0.27389,0,1,
1,0.63708,2,1,2,1.558,0,2,0.11399,0,1,
1,0.60252,2,1,1,1.4383,1,2,0.28479,0,1,
1,0.50517,2,1,1,1.6035,1,1,0.090746,0,1,
1,0.51793,2,1,1,1.181,1,2,0.28784,0,1,
1,0.036098,2,2,1,1.8088,0,1,0.089321,0,1,
1,0.64606,2,1,1,1.8191,1,1,0.087577,0,1,
1,0.58702,2,2,2,1.4872,1,2,0.12128,0,1,
1,0.37194,2,2,1,1.7551,0,1,0.088666,0,1,
1,0.50703,2,2,2,1.4044,1,1,0.037673,0,1,
1,0.48286,2,2,2,1.7257,1,1,0.04117,0,1,
1,0.41453,2,2,2,1.154,1,1,0.040254,0,1,
1,0.54389,2,1,1,1.5091,1,2,0.28589,0,1,
1,0.62931,2,2,2,1.668,1,2,0.11699,0,1,
1,0.47796,2,2,2,1.1526,1,1,0.040827,0,1,
1,0.58636,2,1,1,1.0627,1,1,0.093827,0,1,
1,0.42707,2,1,1,1.3371,1,1,0.089147,0,1,
1,0.91585,2,2,2,1.4459,1,1,0.04129,0,1,
1,0.10929,2,2,1,1.7576,0,1,0.08841,0,1,
1,1.4509,2,2,2,1.1305,1,1,0.03788,0,1,
1,0.88399,2,1,1,1.9015,1,1,0.090132,0,1,
1,0.60278,2,2,2,1.2203,1,2,0.11466,0,1,
1,0.56378,2,1,1,1.3786,1,2,0.25663,0,1,
1,0.42677,2,1,1,1.4228,1,1,0.091802,0,1,
1,0.68971,2,2,2,1.9727,1,2,0.12032,0,1,
1,0.44694,2,2,2,1.177,1,2,0.12031,0,1,
1,0.42229,2,2,2,1.8823,1,1,0.040196,0,1,
1,0.42945,2,2,2,1.5513,1,2,0.12297,0,1,
1,0.42801,2,2,2,1.3215,1,1,0.037327,0,1,
1,1.4727,2,1,1,1.8998,1,2,0.27749,0,1,
1,0.527,2,2,2,1.5421,1,2,0.11908,0,1,
1,0.83441,2,2,2,1.4629,1,2,0.12072,0,1,
1,0.67192,2,2,2,1.808,1,2,0.12361,0,1,
1,0.58878,2,1,1,1.3608,1,1,0.088192,0,1,
1,0.086697,2,1,1,1.971,1,1,0.086201,0,1,
1,0.18156,2,2,2,1.5555,1,2,0.1156,0,1,
1,0.49196,2,1,1,1.7698,1,1,0.093658,0,1,
1,0.093731,2,2,1,1.6801,0,2,0.27172,0,1,
1,0.34868,2,1,1,1.2052,1,2,0.26981,0,1,
1,0.64281,2,1,1,1.8346,1,2,0.26159,0,1,
1,0.38002,2,1,1,1.8655,1,1,0.088169,0,1,
1,0.40849,2,1,1,1.0415,1,2,0.27759,0,1,
1,0.33187,2,1,1,1.6142,1,2,0.28186,0,1,
1,0.60016,2,2,2,1.2733,1,2,0.12093,0,1,
1,0.63738,2,2,2,1.7467,1,1,0.039717,0,1,
1,0.50385,2,1,1,1.4879,1,1,0.095894,0,1,
1,0.57078,2,1,1,1.7924,1,1,0.090187,0,1,
1,0.60886,2,2,2,1.5245,1,1,0.039339,0,1,
1,0.4942,2,2,2,1.5975,1,2,0.11507,0,1,
1,0.43736,2,2,2,1.22,1,1,0.040078,0,1,
1,0.70149,2,1,1,1.364,1,2,0.26888,0,1,
1,0.51062,2,1,1,1.2972,1,2,0.26559,0,1,
1,0.65987,2,2,2,1.8516,1,2,0.11955,0,1,
1,0.4182,2,2,2,1.9737,1,1,0.040711,0,1,
1,0.44607,2,2,2,1.6236,1,1,0.041562,0,1,
1,0.060786,2,2,1,1.8923,0,2,0.28046,0,1,
1,0.55096,2,2,2,1.9809,1,1,0.039825,0,1,
1,0.53805,2,1,1,1.647,1,2,0.27018,0,1,
1,0.48898,2,1,1,1.7988,1,1,0.087048,0,1,
1,0.46997,2,1,1,1.4049,1,1,0.087629,0,1,
1,0.79854,2,2,2,1.4824,1,2,0.12086,0,1,
1,1.5683,2,2,2,1.0639,1,2,0.12448,0,1,
1,1.8389,2,2,2,1.8029,1,1,0.039988,0,1,
1,0.49152,2,2,2,1.3511,1,2,0.12355,0,1,
1,1.9119,2,2,2,1.8493,1,1,0.038104,0,1,
1,0.70438,2,1,1,1.9918,1,1,0.092526,0,1,
1,0.63584,2,1,2,1.4843,0,2,0.11562,0,1,
1,1.5373,2,2,1,1.3564,0,1,0.085774,0,1,
1,1.7289,2,2,2,1.0544,1,2,0.12254,0,1,
1,0.097744,2,2,1,1.9141,0,2,0.26968,0,1,
1,0.075981,2,1,2,1.705,0,1,0.037548,0,1,
1,NaN,2,0,2,1.4381,NaN,2,0.12417,0,1,
1,1.9131,2,1,2,1.9681,0,1,0.038877,0,1,
1,0.40004,2,2,1,1.7238,0,2,0.27454,0,1,
1,0.57694,2,1,1,1.6568,1,1,0.087918,0,1,
1,0.46757,2,1,1,1.5148,1,1,0.092207,0,1,
1,1.7308,2,1,2,1.8771,0,1,0.038769,0,1,
1,0.49397,2,2,1,1.0602,0,1,0.090396,0,1,
1,0.45502,2,1,1,1.4715,1,2,0.26871,0,1,
1,0.59243,2,2,2,1.311,1,1,0.038623,0,1,
1,0.46275,2,2,2,1.1947,1,2,0.11499,0,1,
1,0.62558,2,1,1,1.6259,0,2,0.26931,1,0,
1,0.67708,2,2,1,1.7291,1,2,0.26867,1,0,
1,0.93149,2,2,2,1.203,0,2,0.11884,1,0,
1,1.0674,2,1,2,1.795,1,1,0.039808,1,0,
1,0.61203,2,2,1,1.9746,1,2,0.27197,1,0,
1,0.30834,2,1,2,1.4201,1,2,0.1193,1,0,
1,0.49811,2,1,2,1.2457,1,1,0.037739,1,0,
1,0.53421,2,2,1,1.4801,1,2,0.28008,1,0,
1,0.7693,2,2,1,1.669,1,2,0.27654,1,0,
1,0.64234,2,2,1,1.8524,1,2,0.26715,1,0,
1,NaN,2,0,1,1.9453,NaN,1,0.088658,1,0,
1,0.564,2,2,1,1.1287,1,1,0.088267,1,0,
1,0.066776,2,2,2,1.6966,0,1,0.037812,1,0,
1,0.44562,2,2,1,1.0801,1,2,0.26664,1,0,
1,0.4559,2,2,1,1.1036,1,2,0.2824,1,0,
1,0.39284,2,2,2,1.1312,0,1,0.03818,1,0,
1,0.46039,2,2,1,1.5151,1,2,0.25862,1,0,
1,0.75985,2,1,2,1.4818,1,2,0.11804,1,0,
1,0.41388,2,1,2,1.4459,1,2,0.11308,1,0,
1,0.47205,2,2,1,1.7982,1,1,0.089581,1,0,
1,0.31869,2,1,2,1.5289,1,2,0.11268,1,0,
1,0.67236,2,1,2,1.6688,1,2,0.12114,1,0,
1,0.46949,2,2,1,1.4833,1,2,0.26689,1,0,
1,0.39642,2,1,2,1.3327,1,2,0.11901,1,0,
1,0.43559,2,2,1,1.2588,1,1,0.092217,1,0,
1,0.47944,2,1,1,1.9737,0,1,0.092196,1,0,
1,0.4898,2,1,2,1.2644,1,1,0.04029,1,0,
1,0.39778,2,1,2,1.7899,1,2,0.11543,1,0,
1,0.41185,2,1,2,1.4971,1,1,0.037534,1,0,
1,0.50897,2,1,2,1.3208,1,1,0.039978,1,0,
1,0.42258,2,1,1,1.6163,0,1,0.088188,1,0,
1,0.51784,2,2,2,1.0069,0,1,0.041197,1,0,
1,0.56815,2,1,2,1.0629,1,2,0.11542,1,0,
1,0.070621,2,1,2,1.92,1,2,0.12107,1,0,
1,0.51295,2,2,1,1.9062,1,2,0.26652,1,0,
1,0.45447,2,2,1,1.8315,1,1,0.089193,1,0,
1,0.34852,2,2,1,1.9137,1,2,0.27468,1,0,
1,0.52194,2,2,1,1.6792,1,1,0.094917,1,0,
1,0.20706,2,1,2,1.7771,1,2,0.11495,1,0,
1,0.57447,2,2,1,1.6937,1,2,0.28622,1,0,
1,0.64045,2,2,1,1.1989,1,1,0.093116,1,0,
1,0.39941,2,1,2,1.4524,1,1,0.037186,1,0,
1,0.50599,2,1,2,1.7889,1,2,0.12297,1,0,
1,0.64501,2,1,2,1.0019,1,1,0.040265,1,0,
1,0.49644,2,2,1,1.5556,1,1,0.091245,1,0,
1,0.38817,2,1,2,1.4332,1,2,0.11592,1,0,
1,0.70525,2,1,2,1.0584,1,1,0.038618,1,0,
1,0.59904,2,2,1,1.442,1,1,0.086288,1,0,
1,0.51843,2,1,2,1.8396,1,1,0.03918,1,0,
1,0.50564,2,2,1,1.6183,1,2,0.27674,1,0,
1,0.54795,2,1,1,1.7416,0,1,0.091345,1,0,
1,0.45403,2,1,2,1.9356,1,1,0.038928,1,0,
1,0.68585,2,2,1,1.3253,1,1,0.09524,1,0,
1,0.71616,2,1,1,1.746,0,1,0.089148,1,0,
1,0.61414,2,1,2,1.8729,1,1,0.041451,1,0,
1,1.0235,2,1,2,1.4333,1,1,0.037296,1,0,
1,0.61168,2,2,1,1.5216,1,2,0.26994,1,0,
1,1.3311,2,1,1,1.6527,0,1,0.092709,1,0,
1,1.1142,2,1,2,1.469,1,1,0.0403,1,0,
1,0.634,2,1,2,1.1833,1,1,0.039415,1,0,
1,0.56802,2,1,1,1.226,0,1,0.091769,1,0,
1,1.0597,2,2,2,1.412,0,2,0.1215,1,0,
1,0.9432,2,1,1,1.0153,0,1,0.09379,1,0,
1,1.5436,2,2,2,1.7507,0,2,0.11591,1,0,
1,NaN,2,0,2,1.0621,NaN,1,0.039661,1,0,
1,1.0332,2,1,1,1.4317,0,1,0.094373,1,0,
1,0.17902,2,2,2,1.5428,0,2,0.11933,1,0,
1,0.49956,2,2,2,1.6101,0,2,0.11822,1,0,
1,0.41482,2,1,1,1.4362,0,1,0.094353,1,0,
1,0.57509,2,1,2,1.0811,1,2,0.12063,1,0,
1,0.51661,2,2,1,1.284,1,2,0.25973,1,0,
1,0.57065,2,1,2,1.0732,1,2,0.11813,1,0,
1,0.56291,2,2,2,1.73,0,1,0.037249,1,0,
1,0.58377,2,1,2,1.3464,1,2,0.11733,1,0,
1,0.47084,2,2,1,1.6522,1,2,0.28482,1,0,
1,0.49146,2,2,1,1.4818,1,2,0.25789,1,0,
1,0.62544,2,1,2,1.3826,1,2,0.12432,1,0,
1,0.48434,2,2,1,1.3269,1,2,0.26195,1,0,
1,0.86659,2,1,2,1.103,1,1,0.038784,1,0,
1,0.58617,2,2,1,1.3704,1,1,0.087569,1,0,
1,0.62444,2,2,1,1.3774,1,2,0.25941,1,0,
1,0.42582,2,1,2,1.4818,1,2,0.1172,1,0,
1,0.43232,2,2,1,1.7956,1,2,0.2649,1,0,
1,0.62526,2,2,1,1.6914,1,1,0.086522,1,0,
1,0.92482,2,1,2,1.8498,1,1,0.039364,1,0,
1,0.49355,2,2,1,1.5123,1,2,0.26373,1,0,
1,0.89599,2,1,2,1.855,1,1,0.038693,1,0,
1,0.59716,2,2,1,1.4654,1,1,0.091201,1,0,
1,0.59978,2,2,1,1.2648,1,1,0.091094,1,0,
1,0.6662,2,2,2,1.6295,0,1,0.039014,1,0,
1,0.69645,2,2,1,1.5627,1,1,0.089405,1,0,
1,0.45181,2,1,2,1.5412,1,2,0.1165,1,0,
1,0.45726,2,2,2,1.3933,0,1,0.038388,1,0,
1,0.53983,2,2,1,1.4205,1,2,0.26194,1,0,
1,0.65144,2,1,2,1.1371,1,2,0.11315,1,0,
1,0.58725,2,1,2,1.2922,1,1,0.037234,1,0,
1,0.70929,2,1,2,1.0073,1,2,0.1216,1,0,
1,0.12989,2,1,1,1.9327,0,2,0.27193,1,0,
1,0.8388,2,2,1,1.6093,1,1,0.092938,1,0,
1,1.1873,2,2,1,1.8918,1,2,0.28007,1,0,
1,0.25671,2,1,2,1.7417,1,1,0.041381,1,1,
1,0.49523,2,2,1,1.0766,1,2,0.25824,1,1,
1,0.099865,2,2,2,1.7872,0,2,0.11412,1,1,
1,1.0329,2,1,1,1.1935,0,2,0.27203,1,1,
1,0.73275,2,2,1,1.5309,1,2,0.28001,1,1,
1,0.56062,2,1,2,1.9241,1,1,0.037797,1,1,
1,0.053608,2,1,2,1.9861,1,2,0.12412,1,1,
1,0.24824,2,2,1,1.9753,1,1,0.089781,1,1,
1,0.64659,2,1,2,1.3048,1,2,0.11223,1,1,
1,0.51049,2,1,2,1.7536,1,2,0.1205,1,1,
1,0.8702,2,2,1,1.2064,1,1,0.088324,1,1,
1,NaN,2,0,1,1.8614,NaN,1,0.09356,1,1,
1,0.55084,2,2,1,1.6578,1,2,0.28665,1,1,
1,1.074,2,1,2,1.1022,1,1,0.040232,1,1,
1,0.57904,2,1,2,1.5805,1,1,0.039362,1,1,
1,0.11638,2,1,2,1.9635,1,1,0.037593,1,1,
1,0.82565,2,2,1,1.8449,1,2,0.26521,1,1,
1,0.078244,2,2,1,1.7531,1,2,0.27297,1,1,
1,0.4246,2,1,2,1.703,1,2,0.11165,1,1,
1,0.68261,2,1,2,1.2466,1,2,0.11519,1,1,
1,0.75989,2,2,1,1.0399,1,1,0.09153,1,1,
1,0.48199,2,2,2,1.4621,0,1,0.03791,1,1,
1,1.0215,2,2,2,1.1174,0,1,0.037902,1,1,
1,0.65039,2,1,2,1.1616,1,1,0.040176,1,1,
1,0.44773,2,1,2,1.4198,1,1,0.039686,1,1,
1,0.43621,2,1,1,1.6661,0,1,0.091132,1,1,
1,1.0562,2,1,1,1.9732,0,1,0.0956,1,1,
1,0.58949,2,2,1,1.2797,1,2,0.27582,1,1,
1,0.81264,2,1,2,1.5314,1,1,0.038582,1,1,
1,0.7069,2,1,2,1.9307,1,2,0.11839,1,1,
1,0.69025,2,1,2,1.1667,1,1,0.041058,1,1,
1,0.60699,2,1,2,1.7892,1,2,0.12502,1,1,
1,0.49256,2,2,1,1.103,1,2,0.28257,1,1,
1,0.48787,2,1,2,1.8836,1,1,0.038683,1,1,
1,0.46822,2,2,1,1.5222,1,1,0.09323,1,1,
1,0.57027,2,1,2,1.9741,1,2,0.12424,1,1,
1,0.4512,2,1,2,1.7561,1,1,0.040138,1,1,
1,0.60274,2,2,1,1.7226,1,1,0.090395,1,1,
1,0.60991,2,1,2,1.0026,1,2,0.11523,1,1,
1,0.59315,2,2,1,1.2056,1,1,0.091589,1,1,
1,0.47436,2,1,2,1.2604,1,2,0.1159,1,1,
1,0.49869,2,1,2,1.08,1,2,0.12452,1,1,
1,0.42747,2,1,2,1.7353,1,1,0.039107,1,1,
1,0.5074,2,2,1,1.8227,1,2,0.28662,1,1,
1,1.4911,2,1,1,1.3434,0,1,0.09245,1,1,
1,0.42211,2,1,2,1.1361,1,2,0.12094,1,1,
1,0.75047,2,2,1,1.6659,1,1,0.095493,1,1,
1,0.55276,2,2,1,1.8304,1,2,0.28589,1,1,
1,0.54804,2,2,1,1.6736,1,1,0.09414,1,1,
1,0.43114,2,2,1,1.1395,1,2,0.2612,1,1,
1,0.42989,2,2,1,1.3788,1,2,0.28231,1,1,
1,0.40049,2,2,1,1.6784,1,2,0.27065,1,1,
1,0.39614,2,1,2,1.5159,1,2,0.1154,1,1,
1,0.49525,2,2,1,1.9781,1,2,0.2725,1,1,
1,0.47317,2,2,1,1.2677,1,2,0.28235,1,1,
1,0.4741,2,1,2,1.8669,1,2,0.11864,1,1,
1,0.49194,2,2,1,1.3738,1,2,0.26436,1,1,
1,1.912,2,1,1,1.1366,0,1,0.089082,1,1,
1,0.61075,2,1,2,1.0827,1,1,0.037974,1,1,
1,0.75797,2,1,2,1.7388,1,2,0.11609,1,1,
1,0.52263,2,2,1,1.3721,1,2,0.26224,1,1,
1,0.48777,2,1,2,1.3805,1,1,0.04092,1,1,
1,0.75109,2,2,1,1.3022,1,1,0.089391,1,1,
1,0.42309,2,2,1,1.2945,1,2,0.25685,1,1,
1,0.53556,2,1,2,1.2598,1,2,0.11554,1,1,
1,0.46132,2,1,2,1.4635,1,2,0.12278,1,1,
1,1.2624,2,1,1,1.9879,0,1,0.088339,1,1,
1,0.58868,2,1,2,1.3851,1,2,0.122,1,1,
1,0.61259,2,1,1,1.9432,0,1,0.090921,1,1,
1,0.87368,2,1,2,1.167,1,1,0.037831,1,1,
1,0.58533,2,1,1,1.925,0,1,0.090855,1,1,
1,0.46348,2,2,1,1.7543,1,1,0.088358,1,1,
1,0.34167,2,2,1,1.8566,1,2,0.27858,1,1,
1,0.4659,2,2,2,1.6024,0,1,0.040446,1,1,
1,0.70661,2,1,2,1.1074,1,1,0.039141,1,1,
1,0.43147,2,2,1,1.4555,1,2,0.26201,1,1,
1,0.39556,2,2,1,1.6546,1,2,0.26061,1,1,
1,0.84767,2,1,1,1.0575,0,1,0.088252,1,1,
1,0.72759,2,2,1,1.0213,1,2,0.27605,1,1,
1,0.5192,2,2,1,1.2898,1,1,0.093842,1,1,
1,0.45176,2,1,1,1.9315,0,1,0.092359,1,1,
1,1.0109,2,1,2,1.514,1,1,0.038413,1,1,
1,0.42156,2,1,2,1.8753,1,1,0.037781,1,1,
1,0.73429,2,2,2,1.3781,0,2,0.1147,1,1,
1,0.63209,2,2,1,1.8845,1,2,0.27784,1,1,
1,0.77246,2,2,1,1.5348,1,1,0.086233,1,1,
1,0.86436,2,1,1,1.8926,0,1,0.090577,1,1,
1,0.61538,2,2,1,1.1028,1,2,0.28741,1,1,
1,0.56417,2,1,2,1.212,1,2,0.12374,1,1,
1,0.51091,2,2,1,1.7016,1,2,0.27414,1,1,
1,0.41893,2,1,2,1.3614,1,2,0.12179,1,1,
1,0.40721,2,1,2,1.0014,1,2,0.12151,1,1,
1,0.55707,2,2,2,1.3843,0,1,0.040264,1,1,
1,0.42364,2,1,2,1.3201,1,2,0.12054,1,1,
1,0.94274,2,2,1,1.3933,1,1,0.08835,1,1,
1,0.5826,2,2,1,1.1813,1,1,0.091449,1,1,
1,0.78489,2,1,2,1.2094,1,1,0.039911,1,1,
1,0.24426,2,1,2,1.5937,1,1,0.040819,1,1,
1,0.067009,2,1,2,1.5945,1,1,0.037235,1,1,
1,0.33079,2,1,2,1.1725,1,2,0.11429,1,1,
10,0.74795,2,2,2,1.8962,1,1,0.12274,0,1,
10,0.48255,2,2,2,1.8266,1,2,0.35129,0,1,
10,0.43359,2,1,1,1.39,1,1,0.12521,0,1,
10,0.54509,2,1,1,1.4979,1,2,0.40275,0,1,
10,0.51676,2,1,1,1.6948,1,2,0.36653,0,1,
10,0.52307,2,1,1,1.8344,1,2,0.40412,0,1,
10,0.447,2,2,2,1.6096,1,2,0.35241,0,1,
10,0.29295,2,1,1,1.5747,1,1,0.13172,0,1,
10,0.41949,2,2,1,1.326,0,2,0.38756,0,1,
10,0.60895,2,2,2,1.4564,1,1,0.11938,0,1,
10,0.56864,2,1,2,1.7138,0,1,0.12434,0,1,
10,0.70144,2,1,1,1.8844,1,1,0.12369,0,1,
10,0.51102,2,1,1,1.7209,1,1,0.13175,0,1,
10,0.93994,2,2,2,1.0186,1,2,0.37422,0,1,
10,0.66974,2,2,2,1.6748,1,1,0.11717,0,1,
10,0.54527,2,2,2,1.4385,1,1,0.11718,0,1,
10,0.51932,2,1,2,1.4378,0,2,0.35544,0,1,
10,0.70234,2,1,1,1.117,1,1,0.12223,0,1,
10,0.53486,2,2,2,1.8147,1,1,0.1224,0,1,
10,0.48381,2,1,1,1.3249,1,2,0.40266,0,1,
10,0.52882,2,2,2,1.2462,1,2,0.37498,0,1,
10,0.59517,2,2,2,1.3427,1,2,0.37081,0,1,
10,0.52526,2,2,2,1.3757,1,1,0.12859,0,1,
10,0.46793,2,2,1,1.5466,0,1,0.12334,0,1,
10,0.61843,2,1,1,1.5619,1,1,0.1354,0,1,
10,0.5262,2,2,2,1.3958,1,2,0.35363,0,1,
10,0.49195,2,2,2,1.3981,1,2,0.37067,0,1,
10,0.75352,2,1,2,1.5154,0,1,0.11835,0,1,
10,0.58714,2,1,2,1.6575,0,2,0.37249,0,1,
10,0.85866,2,1,1,1.9509,1,1,0.12202,0,1,
10,0.57806,2,2,2,1.7223,1,1,0.12716,0,1,
10,0.5774,2,1,1,1.4001,1,2,0.40343,0,1,
10,0.74332,2,1,1,1.8319,1,1,0.13553,0,1,
10,1.0262,2,2,2,1.1343,1,2,0.39128,0,1,
10,0.58271,2,1,1,1.0605,1,2,0.38778,0,1,
10,0.45739,2,2,2,1.0842,1,2,0.36034,0,1,
10,0.56281,2,1,2,1.1639,0,2,0.35333,0,1,
10,0.61956,2,2,2,1.3242,1,2,0.37028,0,1,
10,NaN,2,0,2,1.3017,NaN,2,0.37361,0,1,
10,0.54504,2,1,1,1.0117,1,2,0.39946,0,1,
10,0.77269,2,1,1,1.5399,1,2,0.36938,0,1,
10,0.39841,2,2,2,1.0954,1,2,0.3769,0,1,
10,0.55304,2,1,1,1.1465,1,1,0.12944,0,1,
10,0.53748,2,2,2,1.6311,1,2,0.3562,0,1,
10,0.041899,2,1,1,1.8593,1,2,0.40762,0,1,
10,0.62454,2,1,1,1.9742,1,1,0.13054,0,1,
10,0.4961,2,1,1,1.5708,1,2,0.38491,0,1,
10,0.53925,2,2,2,1.9969,1,1,0.12975,0,1,
10,0.62075,2,1,1,1.5535,1,1,0.13152,0,1,
10,0.73617,2,2,2,1.5155,1,1,0.12264,0,1,
10,0.66606,2,1,1,1.3307,1,1,0.13434,0,1,
10,0.72101,2,2,2,1.43,1,1,0.12378,0,1,
10,0.64079,2,1,1,1.4918,1,1,0.12999,0,1,
10,0.41448,2,2,2,1.071,1,1,0.1259,0,1,
10,0.5423,2,1,1,1.8877,1,2,0.38167,0,1,
10,0.67041,2,1,1,1.0646,1,1,0.12536,0,1,
10,0.57317,2,2,2,1.4362,1,2,0.37333,0,1,
10,0.66992,2,2,2,1.8266,1,2,0.38591,0,1,
10,0.7613,2,2,2,1.3945,1,1,0.122,0,1,
10,0.68231,2,1,1,1.6135,1,1,0.12355,0,1,
10,0.59326,2,2,1,1.8186,0,1,0.12835,0,1,
10,0.66655,2,1,1,1.8862,1,2,0.37874,0,1,
10,0.52917,2,2,1,1.9311,0,2,0.38318,0,1,
10,0.71286,2,2,2,1.1908,1,2,0.38442,0,1,
10,0.53558,2,1,2,1.2586,0,1,0.12196,0,1,
10,0.47643,2,2,2,1.8979,1,1,0.12177,0,1,
10,0.59499,2,1,1,1.5934,1,2,0.38137,0,1,
10,0.73844,2,1,1,1.5038,1,1,0.12394,0,1,
10,0.44018,2,2,1,1.6128,0,2,0.37699,0,1,
10,0.63767,2,1,1,1.8194,1,2,0.36955,0,1,
10,0.7286,2,1,1,1.5319,1,1,0.12814,0,1,
10,0.71999,2,2,2,1.2021,1,1,0.11992,0,1,
10,0.55271,2,1,1,1.4539,1,2,0.37862,0,1,
10,0.78488,2,1,1,1.4279,1,1,0.12807,0,1,
10,0.5424,2,2,2,1.9661,1,2,0.35408,0,1,
10,0.44349,2,1,1,1.6201,1,2,0.38733,0,1,
10,0.80285,2,2,2,1.6954,1,1,0.12628,0,1,
10,0.47097,2,1,2,1.7202,0,1,0.11973,0,1,
10,1.0559,2,1,1,1.3469,1,2,0.40048,0,1,
10,0.56763,2,1,1,1.517,1,1,0.123,0,1,
10,0.48667,2,2,2,1.5567,1,1,0.12182,0,1,
10,0.56039,2,1,1,1.1565,1,1,0.122,0,1,
10,0.42058,2,2,2,1.5621,1,2,0.35824,0,1,
10,0.46258,2,1,2,1.6948,0,1,0.11644,0,1,
10,0.56234,2,1,1,1.4265,1,2,0.37393,0,1,
10,0.55035,2,2,2,1.8363,1,1,0.11834,0,1,
10,0.5253,2,1,1,1.7314,1,1,0.12578,0,1,
